ACCELEROMETER X (m/s²),ACCELEROMETER Y (m/s²),ACCELEROMETER Z (m/s²),GRAVITY X (m/s²),GRAVITY Y (m/s²),GRAVITY Z (m/s²),LINEAR ACCELERATION X (m/s²),LINEAR ACCELERATION Y (m/s²),LINEAR ACCELERATION Z (m/s²),GYROSCOPE X (rad/s),GYROSCOPE Y (rad/s),GYROSCOPE Z (rad/s),LIGHT (lux),MAGNETIC FIELD X (μT),MAGNETIC FIELD Y (μT),MAGNETIC FIELD Z (μT),ORIENTATION Z (azimuth °),ORIENTATION X (pitch °),ORIENTATION Y (roll °),PROXIMITY (i),ATMOSPHERIC PRESSURE (atm),SOUND LEVEL (dB),LOCATION Latitude : ,LOCATION Longitude : ,LOCATION Altitude ( m),LOCATION Altitude-google ( m),LOCATION Altitude-atmospheric pressure ( m),LOCATION Speed ( Kmh),LOCATION Accuracy ( m),LOCATION ORIENTATION (°),Satellites in range,Time since start in ms ,YYYY-MO-DD HH-MI-SS_SSS
4.5314,4.0763,8.4927,4.9112,3.5406,7.7146,1.0062,0.3086,-0.6588,-0.2643,-0.1809,0.0723,41.7817,-44.55,-14.25,-49.35,59.35,-23.68,-24.05,5.0,0.97816,38.105,35.77282,-78.67791,263.55,NaN,,,69.977425,,2 / 19,10,2018-03-12 16:21:18:904
2.2753,3.3147,7.4629,2.5951,2.6831,9.0685,2.4721,0.7482,-0.5978,0.0318,2.478,0.3376,40.505,-34.2,-8.55,-54.6,36.67,-21.48,-21.81,5.0,0.97816,38.492,35.77282,-78.67791,263.55,NaN,,,69.977425,,2 / 19,510,2018-03-12 16:21:19:404
1.4466,4.2248,9.2927,1.2566,3.275,9.1578,-0.0087,1.1015,-0.6338,0.1351,0.5089,0.0846,30.8366,-19.8,-10.35,-58.5,40.5,-17.1,-11.93,5.0,0.97818,38.467,35.77282,-78.67791,263.55,NaN,,,69.977425,,2 / 19,1013,2018-03-12 16:21:19:907
2.0501,3.4776,8.6939,-0.4079,3.9825,8.9523,0.7019,1.2277,1.8362,0.631,-0.2618,0.6199,29.4763,-8.1,-17.4,-59.1,66.5,-17.89,-3.17,5.0,0.97818,37.933,35.77282,-78.67791,263.55,NaN,,,69.977425,,2 / 19,1510,2018-03-12 16:21:20:404
-0.388,5.6427,7.6257,-0.2009,5.2729,8.266,-0.6443,0.4323,-0.6595,0.0249,-0.3753,-0.2158,27.9001,-11.85,-25.95,-54.45,61.31,-31.07,-1.57,5.0,0.97817,44.891,35.77282,-78.67791,263.55,NaN,,,69.977425,,2 / 19,2010,2018-03-12 16:21:20:904
1.4466,3.9566,8.7083,0.6444,4.3841,8.7484,0.3175,-1.0897,-1.3626,-0.2302,0.7448,-0.4321,23.7241,-19.05,-20.4,-53.7,42.54,-28.88,-10.35,5.0,0.97817,47.132,35.77282,-78.67791,263.55,NaN,,,69.977425,,2 / 19,2510,2018-03-12 16:21:21:404
-11.6685,3.9709,5.681,-8.5262,-0.3353,4.8333,-5.0047,3.1386,1.0142,-1.2838,0.6969,-1.2555,13.2455,37.95,-6.9,-36.45,18.79,-31.08,54.31,0.0,0.97818,40.195,35.77282,-78.67791,263.55,NaN,,,69.977425,,2 / 19,3010,2018-03-12 16:21:21:904
-9.2831,-1.7627,2.5723,-7.408,-2.5814,5.8845,-2.6677,-1.2963,2.1228,0.459,0.1621,-1.4361,47.2114,26.1,8.1,-37.35,72.52,3.11,58.87,0.0,0.9782,44.346,35.77282,-78.67791,263.55,NaN,,,69.977425,,2 / 19,3510,2018-03-12 16:21:22:404
-6.4043,0.7808,6.5767,-8.5036,-0.3241,4.8739,2.0683,1.0717,1.7155,-0.8188,5.9412,3.7794,14.3993,22.2,12.15,-34.65,263.11,17.12,25.12,0.0,0.9782,42.763,35.77282,-78.67791,263.55,NaN,,,69.977425,,2 / 19,4010,2018-03-12 16:21:22:904
-6.8162,-4.6511,3.4057,-6.9455,-3.6437,5.8868,2.6529,-2.856,-1.3858,-0.0151,-0.9426,-3.7871,11.6694,18.3,31.95,-22.5,14.91,21.81,49.72,0.0,0.9782,58.966,35.77282,-78.67791,263.55,NaN,,,69.977425,,2 / 19,4510,2018-03-12 16:21:23:404
-6.16,-8.967,0.2922,-8.94,-3.7719,1.4211,-3.0092,-1.3431,-1.0338,-1.4734,1.5251,3.6596,3.5238,25.35,31.65,5.7,334.23,22.62,80.97,0.0,0.97821,45.446,35.77282,-78.67791,263.55,NaN,,,69.977425,,2 / 19,5011,2018-03-12 16:21:23:905
-9.8771,-0.0958,-2.2226,-9.7612,-0.8832,0.3297,-7.0127,1.7295,2.6097,-1.2694,-0.7183,-1.8505,13.9652,30.45,21.9,11.85,336.21,-12.67,89.32,0.0,0.97822,52.867,35.77282,-78.67791,263.55,NaN,,,69.977425,,2 / 19,5510,2018-03-12 16:21:24:404
-5.5804,-6.9168,-1.3077,-6.6783,-7.1405,0.7641,0.8116,1.8202,-2.5998,-0.8838,-1.3415,-1.2625,1.4183,10.65,44.25,14.25,327.39,46.0,80.36,0.0,0.97821,63.565,35.77282,-78.67791,263.55,NaN,,,69.977425,,2 / 19,6011,2018-03-12 16:21:24:905
-4.0093,-11.041,2.3902,-2.0124,-9.5941,0.2725,-1.5256,-1.5745,3.0492,-1.4356,-1.1828,-1.8936,0.0,-4.2,54.6,16.95,343.9,66.07,48.9,0.0,0.9782,56.723,35.77282,-78.67791,263.55,NaN,,,69.977425,,2 / 19,6511,2018-03-12 16:21:25:405
-0.5556,-10.4279,-1.4801,1.4688,-9.6515,0.9279,-0.4587,-0.9455,-4.7518,1.0822,1.0356,0.7733,0.0,-28.35,60.6,4.5,221.37,83.36,-131.85,0.0,0.97822,50.912,35.77282,-78.67791,263.55,NaN,,,69.977425,,2 / 19,7010,2018-03-12 16:21:25:904
3.3961,-9.6471,1.4466,0.3266,-9.7179,1.2755,1.3484,-0.4943,0.0164,2.0537,1.8474,-4.7049,0.0,-17.25,52.2,-9.0,29.22,79.57,75.2,0.0,0.97821,54.282,35.77282,-78.67791,263.55,NaN,,,69.977425,,2 / 19,7510,2018-03-12 16:21:26:404
1.8729,-9.7381,0.1581,2.5971,-9.3594,-1.3517,-0.8242,-1.494,5.059,0.0963,0.4311,-0.162,0.0,-31.35,38.85,-0.6,214.88,72.99,-109.51,0.0,0.97822,55.834,35.77282,-78.67791,263.55,NaN,,,69.977425,,2 / 19,8010,2018-03-12 16:21:26:904
-0.297,-12.0134,4.608,1.0927,-9.6758,1.1646,-1.8698,-2.0778,3.4363,0.3168,0.4023,-0.2574,0.0,-25.2,28.2,-2.4,106.05,80.25,-22.32,0.0,0.97824,49.902,35.77282,-78.67791,263.55,NaN,,,69.977425,,2 / 19,8510,2018-03-12 16:21:27:404
1.6765,-8.9813,1.6669,2.1701,-9.5476,-0.5515,-0.4869,0.566,2.2227,-0.1988,-0.5298,-0.1562,0.0,-30.45,30.6,12.15,127.62,79.06,-68.32,0.0,0.97822,45.545,35.77282,-78.67791,263.55,NaN,,,69.977425,,2 / 19,9011,2018-03-12 16:21:27:905
1.7196,-8.5598,-0.1198,0.0583,-9.422,2.7192,1.571,0.7809,-2.9299,0.4137,0.5446,-0.0726,0.0,-23.1,43.5,13.05,85.47,77.73,-46.0,0.0,0.97823,50.624,35.77282,-78.67791,263.55,NaN,,,69.977425,,2 / 19,9510,2018-03-12 16:21:28:404
3.2045,-7.8892,0.752,1.4823,-9.5825,1.4659,1.5704,1.2995,-0.0661,-0.4444,-1.0358,-0.6856,0.0,-23.85,45.6,17.55,43.03,75.62,-4.29,0.0,0.97822,50.877,35.77282,-78.67791,263.55,NaN,,,69.977425,,2 / 19,10011,2018-03-12 16:21:28:905
1.8825,-8.3107,0.2491,0.8911,-9.65,1.5016,4.1444,-2.313,-3.8678,0.9937,0.282,0.8356,0.0,-15.9,47.25,24.6,101.6,80.01,-85.0,0.0,0.97822,48.064,35.77282,-78.67791,263.55,NaN,,,69.977425,,2 / 19,10510,2018-03-12 16:21:29:404
-0.6035,-11.75,2.3902,-0.209,-9.5882,2.0477,-3.6237,0.3108,1.2032,0.5229,1.6141,0.3333,0.0,-16.65,53.55,8.7,36.3,77.88,5.83,0.0,0.97823,48.31,35.77282,-78.67791,263.55,NaN,,,69.977425,,2 / 19,11011,2018-03-12 16:21:29:905
2.2944,-9.3597,1.71,1.1222,-9.7403,0.1912,-0.0689,0.088,0.7566,-0.1163,1.1203,-0.3927,0.0,-28.35,46.35,9.3,135.08,86.44,-66.89,0.0,0.97822,40.731,35.77282,-78.67791,263.55,NaN,,,69.977425,,2 / 19,11511,2018-03-12 16:21:30:405
4.2727,-9.1059,0.9293,1.3084,-9.7056,-0.5105,1.2998,0.2575,1.3644,-0.4034,0.6186,-0.0219,0.0,-32.7,48.3,1.35,188.79,83.15,-98.95,0.0,0.97823,40.879,35.77282,-78.67791,263.55,NaN,,,69.977425,,2 / 19,12010,2018-03-12 16:21:30:904
1.8346,-10.5908,-0.3066,0.9755,-9.728,0.7645,-1.5514,0.2164,-1.568,0.3146,0.1088,0.6971,0.0,-34.05,46.5,1.8,176.34,78.63,-90.77,0.0,0.97823,40.949,35.77282,-78.67791,263.55,NaN,,,69.977425,,2 / 19,12510,2018-03-12 16:21:31:404
1.2023,-9.6088,0.7616,0.772,-9.7687,0.3828,0.2809,0.0175,0.3483,-0.1035,0.0305,-0.0384,0.0,-30.6,49.35,-1.5,151.59,84.96,-63.63,0.0,0.97823,52.55,35.77282,-78.67791,263.55,NaN,,,69.977425,,2 / 19,13010,2018-03-12 16:21:31:904
-0.1054,-9.628,1.0107,0.3731,-9.774,0.7066,-0.5484,0.1383,0.3496,0.0014,0.2345,-0.0667,0.0,-27.6,49.8,-2.1,114.22,85.33,-27.83,0.0,0.97825,41.231,35.77282,-78.67791,263.55,NaN,,,69.977425,,2 / 19,13511,2018-03-12 16:21:32:405
0.3449,-9.4699,1.0778,0.2647,-9.7691,0.816,0.0673,0.2991,0.2648,-0.0167,0.2084,-0.137,0.0,-26.4,51.45,-3.9,97.53,85.09,-8.33,0.0,0.97824,44.635,35.77282,-78.67791,263.55,NaN,,,69.977425,,2 / 19,14010,2018-03-12 16:21:32:904
2.8501,-8.2293,0.206,1.5893,-9.6451,0.7852,1.0412,1.3058,-0.4279,0.0408,-0.5916,-0.7373,0.0,-29.7,49.5,-1.2,126.35,84.38,-42.15,0.0,0.97823,41.446,35.77282,-78.67791,263.55,NaN,,,69.977425,,2 / 19,14510,2018-03-12 16:21:33:404
0.7472,-9.4172,0.9245,2.8639,-9.3328,-0.9307,-3.2596,0.1692,1.9371,0.0712,-0.8638,0.3589,0.0,-40.2,45.9,10.65,160.18,72.79,-92.8,0.0,0.97824,47.863,35.77282,-78.67791,263.55,NaN,,,69.977425,,2 / 19,15011,2018-03-12 16:21:33:905
-1.3987,-9.216,1.8921,0.8983,-9.6147,1.7091,-1.3485,0.1075,-0.3893,-0.4678,1.6801,-0.4251,0.0,-28.35,49.5,-1.65,121.04,78.41,-45.62,0.0,0.97824,44.047,35.77282,-78.67791,263.55,NaN,,,69.977425,,2 / 19,15510,2018-03-12 16:21:34:404
2.0262,-9.2591,2.1603,1.3892,-9.6904,0.5794,1.1313,1.8387,1.7859,-0.422,1.7445,-0.349,0.0,-27.0,52.65,-15.9,140.61,81.58,-29.33,0.0,0.97825,42.559,35.77282,-78.67791,263.55,NaN,,,69.977425,,2 / 19,16010,2018-03-12 16:21:34:904
3.9374,-9.3166,1.37,1.9889,-9.5926,0.4429,1.595,0.5885,0.973,-0.2185,1.7679,0.1321,0.0,-15.45,55.35,-13.05,245.46,78.13,-82.21,0.0,0.97823,40.876,35.77282,-78.67791,263.55,NaN,,,69.977425,,2 / 19,16511,2018-03-12 16:21:35:405
1.6142,-10.1022,-0.4646,1.1842,-9.6657,1.1583,0.0646,-0.7282,-1.3722,-0.2728,0.4385,-0.0511,0.0,-7.05,58.2,-13.95,261.56,79.3,-64.18,0.0,0.97824,41.077,35.77282,-78.67791,263.55,NaN,,,69.977425,,2 / 19,17010,2018-03-12 16:21:35:904
0.8766,-9.4699,0.8239,1.0295,-9.7249,0.7328,-0.107,0.2691,0.1943,-0.1258,-0.075,-0.0367,0.0,-5.4,60.0,-12.6,237.26,81.71,-46.24,0.0,0.97825,43.151,35.77282,-78.67791,263.55,NaN,,,69.977425,,2 / 19,17510,2018-03-12 16:21:36:404
0.7472,-9.7525,0.5748,1.1456,-9.7273,0.4872,-0.3541,-0.0107,0.0902,0.0079,0.0033,-0.0554,0.0,-6.15,60.15,-11.25,251.43,82.93,-65.69,0.0,0.97825,44.425,35.77282,-78.67791,263.55,NaN,,,69.977425,,2 / 19,18010,2018-03-12 16:21:36:904
1.4658,-9.604,0.57,1.3923,-9.6818,0.703,0.0471,0.066,-0.143,-0.0017,0.3777,0.0117,0.0,-6.45,59.25,-9.75,267.91,81.08,-66.31,0.0,0.97824,41.191,35.77282,-78.67791,263.55,NaN,,,69.977425,,2 / 19,18510,2018-03-12 16:21:37:404
0.2874,-9.8148,1.0394,0.9754,-9.7033,1.0316,-0.1157,-0.2368,-0.0944,0.116,-0.2534,0.0767,0.0,-3.9,60.3,-13.5,238.6,81.68,-43.4,0.0,0.97825,37.513,35.77282,-78.67791,263.55,NaN,,,69.977425,,2 / 19,19011,2018-03-12 16:21:37:905
1.9495,-9.1442,0.0192,1.2542,-9.7166,0.4293,0.3884,-0.2465,0.0237,-0.1577,-1.0433,-0.073,0.0,-7.2,59.7,-8.85,257.9,82.23,-71.11,0.0,0.97827,58.373,35.77282,-78.67791,263.55,NaN,,,69.977425,,2 / 19,19511,2018-03-12 16:21:38:405
-0.7712,-9.628,0.0048,2.2689,-9.5341,0.3511,-1.4382,-2.5121,-1.5518,0.5288,-1.8002,0.2099,0.0,-20.1,58.35,-12.9,232.29,76.46,-81.2,0.0,0.97826,55.806,35.77282,-78.67791,263.55,NaN,,,69.977425,,2 / 19,20010,2018-03-12 16:21:38:904
1.8825,-9.786,2.0837,3.0248,-9.3215,-0.3612,-0.6831,-0.2322,2.2314,0.0537,-2.197,-0.0271,0.0,-33.9,55.35,-6.6,217.69,71.9,-96.81,0.0,0.97825,44.098,35.77282,-78.67791,263.55,NaN,,,69.977425,,2 / 19,20510,2018-03-12 16:21:39:404
-1.2119,-5.9684,2.7207,1.3688,-9.5807,1.5834,-0.8913,-3.5272,-9.6808,0.5086,-0.4047,1.2235,0.0,-29.7,49.8,-15.9,148.96,77.68,-40.84,0.0,0.97824,51.157,35.77282,-78.67791,263.55,NaN,,,69.977425,,2 / 19,21010,2018-03-12 16:21:39:904
4.2631,-7.5587,2.807,1.1049,-9.6922,1.005,0.9125,2.238,0.653,-0.2435,-0.7525,-0.5129,0.0,-22.8,56.1,-18.0,106.54,78.0,-1.8,0.0,0.97821,46.475,35.77282,-78.67791,263.55,NaN,,,69.977425,,2 / 19,21510,2018-03-12 16:21:40:404
-0.4455,-8.4113,1.1831,0.8581,-9.7315,0.8555,6.776,-8.7755,-3.3654,0.4979,0.4022,0.2019,0.0,-19.2,70.05,-24.45,189.45,82.9,-45.09,0.0,0.97822,45.409,35.77282,-78.67791,263.55,NaN,,,69.977425,,2 / 19,22012,2018-03-12 16:21:40:906
2.0214,-10.4135,0.7951,-0.5232,-9.5619,2.1135,1.5515,-1.5974,-0.6011,0.1096,-0.3712,0.1987,0.0,4.5,60.75,-34.05,170.49,77.17,13.9,0.0,0.97823,45.056,35.77282,-78.67791,263.55,NaN,,,69.977425,,2 / 19,22510,2018-03-12 16:21:41:404
1.5137,-10.1261,0.6275,0.5966,-9.7829,-0.3319,0.3889,-0.3032,3.7274,0.2401,0.5162,-0.3664,0.0,-7.05,61.35,-25.35,292.13,86.01,-119.09,0.0,0.97822,45.504,35.77282,-78.67791,263.55,NaN,,,69.977425,,2 / 19,23011,2018-03-12 16:21:41:905
-3.3866,-10.6147,3.8368,-0.2801,-9.6526,1.7084,-2.0339,0.6957,0.22,-0.1471,0.2179,-0.319,0.0,13.05,42.15,-39.15,191.33,79.83,9.31,0.0,0.97825,50.104,35.77282,-78.67791,263.55,NaN,,,69.977425,,2 / 19,23510,2018-03-12 16:21:42:404
0.8239,-8.7801,1.5855,0.7517,-9.6996,1.2343,1.3534,1.6917,-1.2083,-0.2659,-0.8804,-0.0948,0.0,-3.45,32.85,-38.1,210.87,81.53,-31.34,0.0,0.97822,45.297,35.77282,-78.67791,263.55,NaN,,,69.977425,,2 / 19,24010,2018-03-12 16:21:42:904
2.0118,-6.8689,1.5616,-0.5951,-9.5386,2.1979,2.527,2.1877,-0.9948,1.2255,0.5449,0.399,0.0,-8.55,7.5,-26.1,193.63,79.83,-31.82,0.0,0.97825,53.399,35.77282,-78.67791,263.55,NaN,,,69.977425,,2 / 19,24510,2018-03-12 16:21:43:404
7.779,-4.632,-6.0211,-0.0069,-9.6606,1.6862,6.8059,4.4319,-6.3206,-0.8033,-0.0932,-0.0042,0.0,-9.3,8.1,-16.2,147.95,78.72,-0.41,0.0,0.97827,44.315,35.77282,-78.67791,263.55,NaN,,,69.977425,,2 / 19,25010,2018-03-12 16:21:43:904
-4.723,-6.0019,-3.262,0.7554,-9.5892,1.9097,-3.2822,-0.872,-9.8103,-0.5983,0.9876,1.1532,0.0,-13.05,14.25,-6.9,223.43,83.18,-100.47,0.0,0.97824,47.698,35.77282,-78.67791,263.55,NaN,,,69.977425,,2 / 19,25510,2018-03-12 16:21:44:404
7.5395,-5.9588,-5.2403,-0.0846,-9.5857,2.0683,6.5522,-7.1375,-6.4539,-0.9391,0.2669,0.0682,0.0,-13.95,19.65,-3.45,92.84,79.49,-5.79,0.0,0.97821,46.421,35.77282,-78.67791,263.55,NaN,,,69.977425,,2 / 19,26010,2018-03-12 16:21:44:904
2.2513,-10.5333,0.843,1.2306,-9.7252,-0.2751,-0.836,1.5304,0.9259,0.2779,0.2749,-0.4868,0.0,-18.0,25.95,5.1,173.32,82.86,-100.05,0.0,0.97822,50.062,35.77282,-78.67791,263.55,NaN,,,69.977425,,2 / 19,26510,2018-03-12 16:21:45:404
-2.8213,-10.4662,5.1541,-0.1902,-9.5421,2.2546,-0.8042,-3.5384,-0.5227,0.4228,0.3766,-0.2141,0.0,-13.35,34.5,-6.15,75.83,77.21,6.8,0.0,0.97826,48.93,35.77282,-78.67791,263.55,NaN,,,69.977425,,2 / 19,27010,2018-03-12 16:21:45:904
0.8526,-8.349,1.5232,0.9475,-9.7471,-0.5163,-0.4559,-0.5983,0.5739,0.1091,-1.086,0.3681,0.0,-17.85,32.4,-4.05,193.14,82.86,-87.7,0.0,0.97826,51.095,35.77282,-78.67791,263.55,NaN,,,69.977425,,2 / 19,27510,2018-03-12 16:21:46:404
1.2646,-10.2651,-0.5604,-0.838,-9.5803,1.9197,0.3057,3.8249,1.3493,-0.2014,1.2272,-0.547,0.0,-12.3,21.15,-15.15,104.05,77.67,23.58,0.0,0.97826,53.35,35.77282,-78.67791,263.55,NaN,,,69.977425,,2 / 19,28011,2018-03-12 16:21:46:905
-0.2826,-9.7669,-0.5844,0.4637,-9.7731,-0.6642,2.1576,-0.7177,1.8474,-0.8454,-0.4154,-0.1028,0.0,-19.65,19.5,-6.6,87.22,85.0,17.35,0.0,0.97824,45.833,35.77282,-78.67791,263.55,NaN,,,69.977425,,2 / 19,28510,2018-03-12 16:21:47:404
-2.304,-6.3612,0.9101,-1.01,-9.7098,0.9324,-0.7143,4.7756,3.2784,-0.9477,1.0978,0.9476,0.0,-26.4,23.4,-4.35,257.45,87.38,-156.46,0.0,0.97826,52.417,35.77282,-78.67791,263.55,NaN,,,69.977425,,1 / 18,29010,2018-03-12 16:21:47:904
2.7351,-6.1265,2.6633,0.5349,-9.7791,0.504,1.9596,3.639,0.0993,0.3035,-0.8181,-1.5632,0.0,-11.85,38.85,-12.9,90.04,79.82,23.92,0.0,0.97825,49.201,35.77282,-78.67791,263.55,NaN,,,69.977425,,1 / 18,29510,2018-03-12 16:21:48:404
-3.8751,-5.9444,-9.8962,0.7627,-9.687,1.3229,2.4336,-9.345,-12.0848,-0.0289,3.1996,0.6291,0.0,-13.35,41.4,-6.6,278.46,82.57,-139.26,0.0,0.97824,52.974,35.77282,-78.67791,263.55,NaN,,,69.977425,,1 / 19,30010,2018-03-12 16:21:48:904
6.0019,-8.579,3.9087,-0.2162,-9.6866,1.5142,7.0491,1.9692,-2.1885,-0.8736,-0.8751,-1.1957,0.0,-2.85,42.9,-13.05,152.14,79.13,-2.13,0.0,0.97824,52.524,35.77282,-78.67791,263.55,NaN,,,69.977425,,1 / 19,30510,2018-03-12 16:21:49:404
6.1025,-12.3487,-5.384,1.3648,-9.7076,-0.2645,9.6457,-17.5967,2.9478,0.148,1.0797,0.0389,0.0,-13.5,56.25,-4.65,265.16,81.21,-119.98,0.0,0.97824,49.138,35.77282,-78.67791,263.55,NaN,,,69.977425,,1 / 19,31010,2018-03-12 16:21:49:904
8.0904,-19.7158,-4.8044,-0.3007,-9.5443,2.2328,9.5572,3.2794,-5.8891,-0.4134,0.0038,0.3526,0.0,11.55,54.6,-26.7,221.01,79.42,-3.5,0.0,0.97823,54.524,35.77282,-78.67791,263.55,NaN,,,69.977425,,1 / 19,31510,2018-03-12 16:21:50:404
-1.643,-6.7971,2.3184,1.2221,-9.7299,0.0737,-0.0255,1.7524,-2.5597,1.1344,-0.3802,-0.3371,0.0,-1.2,51.15,-25.35,293.96,82.42,-102.1,0.0,0.97824,50.867,35.77282,-78.67791,263.55,NaN,,,69.977425,,1 / 19,32010,2018-03-12 16:21:50:904
-2.4046,-13.6804,1.4897,0.2712,-9.519,2.3421,-2.7077,-2.1266,0.6194,-0.2515,0.2861,-0.4857,0.0,3.9,31.5,-31.2,190.87,73.04,0.18,0.0,0.97825,55.163,35.77282,-78.67791,263.55,NaN,,,69.977425,,1 / 19,32510,2018-03-12 16:21:51:404
-0.1629,-7.9706,1.8106,1.4274,-9.684,0.5951,-2.3039,-0.9022,1.146,-0.5059,-1.2207,-0.0575,0.0,5.85,35.1,-16.35,255.7,78.19,-30.37,0.0,0.97825,50.13,35.77282,-78.67791,263.55,NaN,,,69.977425,,1 / 19,33010,2018-03-12 16:21:51:904
-0.3066,-9.1154,3.2189,-0.5729,-9.605,1.8936,2.6567,1.4333,-0.0922,0.5929,1.5442,0.9173,0.0,-12.9,23.4,0.15,56.21,78.36,16.83,0.0,0.97827,49.612,35.77282,-78.67791,263.55,NaN,,,69.977425,,1 / 19,33510,2018-03-12 16:21:52:404
-0.4455,-8.3059,0.9245,-1.0185,-9.7437,0.4408,4.2973,-1.1829,0.7921,-0.9358,1.2416,-0.0388,0.0,-5.55,19.65,-3.45,38.1,83.5,66.6,0.0,0.97826,47.183,35.77282,-78.67791,263.55,NaN,,,69.977425,,1 / 19,34010,2018-03-12 16:21:52:904
1.461,-9.24,0.297,0.3836,-9.7991,0.0048,0.6902,-0.172,0.7767,-0.0069,0.9268,0.0097,0.0,-5.4,19.05,1.95,153.99,87.76,-89.28,0.0,0.97826,51.061,35.77282,-78.67791,263.55,NaN,,,69.977425,,1 / 19,34510,2018-03-12 16:21:53:404
-1.1927,-9.695,1.0873,-0.8208,-9.6386,1.6105,0.2598,0.4349,-0.1783,0.0235,0.9465,-0.2481,0.0,-6.45,18.0,-0.9,48.56,79.38,27.01,0.0,0.97826,44.986,35.77282,-78.67791,263.55,NaN,,,69.977425,,1 / 19,35010,2018-03-12 16:21:53:904
0.4072,-9.2591,0.2491,-0.3974,-9.7933,0.3234,1.2711,-0.1435,-0.3912,-0.2055,0.6525,-0.3115,0.0,-7.5,19.5,-0.9,41.38,87.01,50.87,0.0,0.97825,51.456,35.77282,-78.67791,263.55,NaN,,,69.977425,,1 / 19,35510,2018-03-12 16:21:54:404
1.5041,-9.9106,0.6562,0.4925,-9.7913,-0.2433,0.2824,0.3316,0.9052,0.0858,0.6738,1.0E-4,0.0,-7.65,18.15,5.55,168.22,86.79,-116.29,0.0,0.97824,47.181,35.77282,-78.67791,263.55,NaN,,,69.977425,,0 / 18,36010,2018-03-12 16:21:54:904
1.1688,-9.7525,0.024,0.9654,-9.7582,0.1229,0.1558,0.159,0.0569,0.0464,-0.1875,0.0389,0.0,-7.05,19.8,6.9,117.33,84.3,-82.75,0.0,0.97824,43.117,35.77282,-78.67791,263.55,NaN,,,69.977425,,0 / 18,36510,2018-03-12 16:21:55:404
1.1017,-9.8866,0.8526,0.5707,-9.7874,0.2274,0.4919,-0.0042,0.4541,-0.2109,-0.2402,0.0448,0.0,-5.7,16.65,6.15,106.31,86.41,-68.27,0.0,0.97823,45.39,35.77282,-78.67791,263.55,NaN,,,69.977425,,0 / 19,37011,2018-03-12 16:21:55:905
0.7568,-9.1633,0.1198,0.1353,-9.8052,-0.0983,0.806,0.152,0.006,0.2451,0.0522,0.1162,0.0,-7.2,17.55,2.7,193.35,89.02,-126.01,0.0,0.97821,46.386,35.77282,-78.67791,263.55,NaN,,,69.977425,,0 / 19,37511,2018-03-12 16:21:56:405
-0.4742,-9.4699,1.5663,-0.7894,-9.6686,1.4369,0.1809,0.5532,-0.1302,-0.025,-0.2418,-0.0058,0.0,-7.05,16.65,3.3,28.18,80.38,28.78,0.0,0.97822,47.558,35.77282,-78.67791,263.55,NaN,,,69.977425,,0 / 19,38010,2018-03-12 16:21:56:904
-0.0623,-10.4567,1.2215,-0.3973,-9.747,1.0046,0.1623,0.1602,-0.0212,-0.0639,-0.2253,-0.0479,0.0,-9.3,15.45,5.1,40.73,84.11,14.75,0.0,0.97823,48.168,35.77282,-78.67791,263.55,NaN,,,69.977425,,0 / 19,38511,2018-03-12 16:21:57:405
-0.1868,-9.6615,1.0586,-0.5308,-9.7292,1.1095,0.3112,0.1363,-0.0346,0.0049,6.0E-4,0.0182,0.0,-9.6,15.9,4.5,34.13,82.9,23.8,0.0,0.97824,48.199,35.77282,-78.67791,263.55,NaN,,,69.977425,,0 / 19,39010,2018-03-12 16:21:57:904
-0.2826,-9.6807,1.1496,-0.502,-9.7247,1.1615,0.1961,0.0592,-0.0332,0.0464,-0.0149,0.007,0.0,-7.8,16.95,5.25,27.92,82.85,24.22,0.0,0.97824,50.009,35.77282,-78.67791,263.55,NaN,,,69.977425,,0 / 19,39510,2018-03-12 16:21:58:404
-0.364,-9.6807,1.2646,-0.458,-9.7197,1.2195,0.1484,0.1215,0.0283,0.0022,-0.0405,-0.0074,0.0,-7.2,15.0,6.3,23.29,82.41,21.41,0.0,0.97824,44.534,35.77282,-78.67791,263.55,NaN,,,69.977425,,0 / 19,40010,2018-03-12 16:21:58:904
-0.182,-9.7429,1.164,-0.474,-9.7064,1.3157,0.4207,0.1172,-0.0523,0.007,-0.163,0.0246,0.0,-7.5,15.3,6.9,24.44,81.8,19.81,0.0,0.97823,54.0,35.77282,-78.67791,263.55,NaN,,,69.977425,,0 / 19,40511,2018-03-12 16:21:59:405
-0.1054,-9.7669,1.3508,-0.4428,-9.7071,1.3217,0.4567,0.0288,0.0322,-0.0085,-0.0341,-5.0E-4,0.0,-8.1,12.45,6.9,26.47,81.9,18.5,0.0,0.97824,49.117,35.77282,-78.67791,263.55,NaN,,,69.977425,,0 / 19,41010,2018-03-12 16:21:59:904
-0.3114,-9.7477,1.2789,-0.4798,-9.7051,1.3235,0.1948,-0.0109,-0.0563,-0.0015,-0.0122,0.0171,0.0,-8.7,14.4,7.05,28.2,81.74,19.39,0.0,0.97824,46.501,35.77282,-78.67791,263.55,NaN,,,69.977425,,0 / 19,41510,2018-03-12 16:22:00:404
-0.2443,-9.6423,1.3173,-0.4819,-9.7124,1.268,-0.0892,0.0805,0.0047,0.0059,0.0586,0.0059,0.0,-7.2,15.45,6.3,24.81,82.07,19.38,0.0,0.97824,53.723,35.77282,-78.67791,263.55,NaN,,,69.977425,,0 / 19,42010,2018-03-12 16:22:00:904
-0.0287,-9.5753,1.1688,-0.4751,-9.724,1.1782,0.4093,0.1202,-0.0148,-0.0069,0.025,0.0267,0.0,-7.95,15.75,4.65,29.93,82.56,21.96,0.0,0.97823,46.396,35.77282,-78.67791,263.55,NaN,,,69.977425,,0 / 19,42510,2018-03-12 16:22:01:404
-0.206,-9.6855,1.0682,-0.5025,-9.7185,1.2117,0.2467,0.1204,-0.0526,0.0352,-0.0762,0.0214,0.0,-8.7,15.0,5.55,28.86,82.31,22.53,0.0,0.97825,46.801,35.77282,-78.67791,263.55,NaN,,,69.977425,,0 / 19,43010,2018-03-12 16:22:01:904
-0.594,-7.9323,1.2406,-0.5511,-9.7268,1.121,-0.0486,1.9967,0.103,0.0123,-0.0277,-0.0596,0.0,-7.8,15.6,4.05,33.79,82.62,22.5,0.0,0.97824,51.145,35.77282,-78.67791,263.55,NaN,,,69.977425,,0 / 19,43510,2018-03-12 16:22:02:404
-0.3784,-9.6423,1.2406,-0.4748,-9.7192,1.2173,0.1056,0.1489,0.0287,0.0107,-0.0218,0.0304,0.0,-9.6,21.9,-4.95,78.87,82.58,23.22,0.0,0.97824,46.101,35.77282,-78.67791,263.55,NaN,,,69.977425,,0 / 19,44011,2018-03-12 16:22:02:905
-0.3976,-9.6615,1.2789,-0.4764,-9.7202,1.2085,0.1046,0.0665,0.0623,0.0214,-0.0059,0.007,0.0,-13.05,11.4,-28.5,131.55,82.36,22.06,0.0,0.97828,48.322,35.77282,-78.67791,263.55,NaN,,,69.977425,,0 / 19,44510,2018-03-12 16:22:03:404
-0.2443,-9.628,1.1975,-0.476,-9.7175,1.2301,0.2211,0.0875,-0.0333,-0.0085,0.0,-0.0095,0.0,-13.65,-19.95,-16.8,124.91,82.27,21.16,0.0,0.97831,59.918,35.77282,-78.67791,263.55,NaN,,,69.977425,,0 / 19,45010,2018-03-12 16:22:03:904
-0.4503,-9.4795,1.2646,-0.4854,-9.7157,1.2406,0.1183,0.2278,-0.0204,0.0251,0.0021,-0.0287,0.0,-8.25,-21.15,-0.6,96.48,82.19,21.37,0.0,0.97836,58.137,35.77282,-78.67791,263.55,NaN,,,69.977425,,0 / 19,45511,2018-03-12 16:22:04:405
-0.0719,-9.7573,1.2885,-0.1599,-9.7295,1.2169,0.0924,-0.0188,0.0708,0.0267,0.0043,-0.0138,0.0,-4.35,-19.95,7.35,22.49,82.82,14.23,0.0,0.9784,55.616,35.77282,-78.67791,263.55,NaN,,,69.977425,,0 / 19,46011,2018-03-12 16:22:04:905
0.024,-9.8627,1.2694,-0.2243,-9.72,1.2812,0.2597,-0.0745,0.0082,0.0155,0.0176,0.0427,0.0,-4.8,-9.0,10.35,21.46,82.41,7.51,0.0,0.97845,51.559,35.77282,-78.67791,263.55,NaN,,,69.977425,,0 / 19,46510,2018-03-12 16:22:05:404
-0.57,-9.513,1.2646,-0.4125,-9.7263,1.1827,-0.1076,0.2332,0.1124,-0.0229,0.0011,0.0256,0.0,-7.2,-6.6,5.1,42.46,82.48,16.39,0.0,0.97848,51.65,35.77282,-78.67791,263.55,NaN,,,69.977425,,0 / 19,47011,2018-03-12 16:22:05:905
-0.2347,-9.7142,1.0921,-0.4896,-9.7154,1.2418,0.1775,-0.0274,-0.0465,-0.0079,0.1385,-0.0068,0.0,-4.65,-11.1,6.45,22.73,82.18,21.52,0.0,0.97852,51.132,35.77282,-78.67791,263.55,NaN,,,69.977425,,0 / 19,47511,2018-03-12 16:22:06:405
-0.57,-9.7142,1.3556,-0.4688,-9.7225,1.1935,-0.1029,0.0155,0.1592,-0.0213,0.081,-0.0383,0.0,-3.15,-16.5,15.3,348.16,82.49,21.44,0.0,0.97853,50.964,35.77282,-78.67791,263.55,NaN,,,69.977425,,0 / 19,48010,2018-03-12 16:22:06:904
-0.5748,-9.8723,1.0921,-0.4917,-9.7193,1.21,0.3075,-0.005,-0.0401,0.0272,-0.0085,-0.0164,0.0,-4.35,-12.6,23.25,346.39,82.71,22.41,0.0,0.97859,50.405,35.77282,-78.67791,263.55,NaN,,,69.977425,,0 / 19,48510,2018-03-12 16:22:07:404
-0.1006,-9.6663,1.1448,-0.1921,-9.7491,1.0438,0.0166,0.1889,0.0578,-0.0484,0.1018,-0.1118,0.0,-1.8,-5.4,30.15,353.23,83.79,10.43,0.0,0.97862,51.956,35.77282,-78.67791,263.55,NaN,,,69.977425,,0 / 19,49010,2018-03-12 16:22:07:904
0.1245,-9.6807,1.0442,-0.0339,-9.7462,1.0862,0.1262,0.0271,-0.079,0.0187,-0.1086,-0.0026,0.0,2.1,-0.6,31.65,354.58,83.64,1.79,0.0,0.97867,44.786,35.77282,-78.67791,263.55,NaN,,,69.977425,,0 / 19,49510,2018-03-12 16:22:08:404
0.0096,-9.604,1.5041,0.0637,-9.7032,1.4191,-0.02,-0.0628,-0.0635,0.0475,-0.1986,-0.0356,0.0,6.15,6.15,30.6,351.76,81.67,-2.57,0.0,0.97871,51.577,35.77282,-78.67791,263.55,NaN,,,69.977425,,0 / 19,50010,2018-03-12 16:22:08:904
0.3305,-9.4412,2.0214,0.0269,-9.6451,1.7723,0.2831,0.2248,0.2588,0.0075,0.1598,0.0091,0.0,5.4,5.85,26.55,351.49,80.03,-1.78,0.0,0.97875,51.564,35.77282,-78.67791,263.55,NaN,,,69.977425,,0 / 19,50511,2018-03-12 16:22:09:405
-0.2299,-9.719,1.8011,-0.2555,-9.6111,1.9318,0.2325,-0.1119,-0.0973,0.0208,0.1588,0.0192,0.0,-2.1,2.85,18.6,0.91,78.76,5.09,0.0,0.97879,52.156,35.77282,-78.67791,263.55,NaN,,,69.977425,,0 / 19,51010,2018-03-12 16:22:09:904
-0.1245,-9.4507,1.8346,-0.2741,-9.6267,1.8498,0.1654,0.1597,0.0028,0.0027,-0.0953,-0.001,0.0,-2.4,-1.35,15.3,358.02,78.8,9.51,0.0,0.97882,42.469,35.77282,-78.67791,263.55,NaN,,,69.977425,,0 / 19,51510,2018-03-12 16:22:10:404
-0.1772,-9.5944,1.7819,-0.1886,-9.6272,1.8578,-0.003,0.0012,-0.073,-0.0527,-0.1353,0.007,0.0,-4.65,-4.65,13.05,14.66,78.91,7.65,0.0,0.97886,53.625,35.77282,-78.67791,263.55,NaN,,,69.977425,,0 / 19,52011,2018-03-12 16:22:10:905
-0.0575,-9.6471,1.7963,-0.1433,-9.6365,1.8131,0.1297,-0.0255,0.01,0.0011,0.0368,0.0059,0.0,-4.65,-14.7,14.7,17.76,79.23,4.07,0.0,0.97889,49.921,35.77282,-78.67791,263.55,NaN,,,69.977425,,0 / 19,52510,2018-03-12 16:22:11:404
-0.1006,-9.6807,1.8442,-0.1804,-9.6264,1.8631,0.0789,-0.053,-0.0181,0.0118,-0.0761,-0.0015,0.0,-3.9,-21.3,20.85,6.39,79.15,5.69,0.0,0.97897,56.58,35.77282,-78.67791,263.55,NaN,,,69.977425,,0 / 19,53010,2018-03-12 16:22:11:904
-0.0048,-9.5561,1.9016,-0.1727,-9.6241,1.8754,0.1055,0.0842,0.0118,0.0043,0.0165,-0.0021,0.0,-2.85,-23.4,34.65,359.7,78.92,5.15,0.0,0.97902,48.948,35.77282,-78.67791,263.55,NaN,,,69.977425,,0 / 19,53512,2018-03-12 16:22:12:406
0.0192,-9.5465,1.8873,-0.174,-9.6243,1.8743,0.1836,0.0477,0.0159,1.0E-4,-0.0037,-0.0074,0.0,-2.55,-22.65,44.4,358.36,78.88,5.34,0.0,0.97908,58.373,35.77282,-78.67791,263.55,NaN,,,69.977425,,0 / 19,54010,2018-03-12 16:22:12:904
-0.0527,-9.6711,1.8777,-0.1711,-9.6219,1.8868,0.1305,-0.0207,0.0187,0.0048,-0.0016,-0.01,0.0,0.45,-17.55,52.8,354.33,78.91,5.19,0.0,0.97912,57.169,35.77282,-78.67791,263.55,NaN,,,69.977425,,0 / 19,54511,2018-03-12 16:22:13:405
-0.091,-9.628,1.8681,-0.1628,-9.6227,1.8837,0.0783,-0.017,-0.0186,0.0059,-0.0122,0.0107,0.0,4.95,6.75,63.75,350.47,78.86,5.09,0.0,0.97916,50.901,35.77282,-78.67791,263.55,NaN,,,69.977425,,0 / 15,55011,2018-03-12 16:22:13:905
-0.0383,-9.5465,1.8681,-0.1542,-9.624,1.8776,0.143,0.0404,0.0056,1.0E-4,-0.0016,0.0022,0.0,-4.8,23.1,43.8,1.7,78.9,4.65,0.0,0.97918,49.41,35.77282,-78.67791,263.55,NaN,,,69.977425,,0 / 15,55510,2018-03-12 16:22:14:404
-0.0862,-9.628,1.8633,-0.1467,-9.6249,1.8734,0.0648,0.007,-0.0081,-0.0063,0.0059,0.0091,0.0,-8.85,22.95,26.55,12.26,78.95,4.51,0.0,0.97923,50.758,35.77282,-78.67791,263.55,NaN,,,69.977425,,0 / 15,56011,2018-03-12 16:22:14:905
-0.0671,-9.6423,1.8873,-0.1553,-9.6227,1.8839,0.0842,-0.0134,0.0253,-0.0026,0.0,-0.0063,0.0,-16.95,16.5,18.15,34.88,78.91,4.63,0.0,0.97929,52.981,35.77282,-78.67791,263.55,NaN,,,69.977425,,0 / 15,56510,2018-03-12 16:22:15:404
-0.0719,-9.6519,1.8777,-0.1595,-9.6207,1.8939,0.1427,-0.0424,-0.0143,0.0032,0.0027,-0.0148,0.0,-15.3,10.2,17.25,34.34,78.82,4.81,0.0,0.97935,50.53,35.77282,-78.67791,263.55,NaN,,,69.977425,,0 / 15,57010,2018-03-12 16:22:15:904
0.0335,-9.6711,1.8969,-0.1595,-9.6229,1.8829,0.1858,-0.0466,0.0131,0.0048,0.0208,0.0081,0.0,-13.2,8.4,16.95,31.43,78.89,4.29,0.0,0.9794,42.33,35.77282,-78.67791,263.55,NaN,,,69.977425,,0 / 15,57510,2018-03-12 16:22:16:404
-0.1437,-9.5657,1.8537,-0.1615,-9.6207,1.8938,0.0931,-0.0448,0.0227,0.0075,-0.0208,0.0059,0.0,-11.55,9.6,18.3,26.92,78.82,4.87,0.0,0.97946,62.896,35.77282,-78.67791,263.55,NaN,,,69.977425,,0 / 15,58010,2018-03-12 16:22:16:904
-0.0096,-9.8819,2.0932,-0.119,-9.6139,1.9311,0.1432,0.0016,0.0666,0.0176,-0.0314,-0.0175,0.0,-7.65,7.8,23.85,13.44,78.68,4.42,0.0,0.97951,62.381,35.77282,-78.67791,263.55,NaN,,,69.977425,,0 / 15,58511,2018-03-12 16:22:17:405
-0.0958,-10.404,1.9783,-0.1213,-9.6136,1.9327,0.0781,-0.639,0.0608,0.0352,5.0E-4,0.0155,0.0,-4.5,10.5,26.7,4.56,78.61,3.59,0.0,0.97954,48.229,35.77282,-78.67791,263.55,NaN,,,69.977425,,0 / 15,59011,2018-03-12 16:22:17:905
-0.3497,-9.9681,2.0693,-0.1096,-9.6163,1.9199,-0.1305,-0.4683,0.1029,-0.0053,-0.0021,0.0368,0.0,-3.9,11.1,28.05,4.41,78.65,3.47,0.0,0.97956,55.531,35.77282,-78.67791,263.55,NaN,,,69.977425,,0 / 15,59510,2018-03-12 16:22:18:404
-0.5365,-9.7094,1.3939,-0.2422,-9.6333,1.8195,-0.2963,-0.1143,-0.4295,-0.1901,0.0133,-0.0526,0.0,-6.15,14.4,22.65,6.18,79.41,7.87,0.0,0.97957,57.644,35.77282,-78.67791,263.55,NaN,,,69.977425,,0 / 15,60010,2018-03-12 16:22:18:904
0.1102,-9.4891,1.2789,-0.1121,-9.7131,1.3466,0.0985,0.2458,-0.1574,0.0533,-0.008,-0.0191,0.0,-4.5,16.5,21.0,6.2,82.09,3.96,0.0,0.97957,52.307,35.77282,-78.67791,263.55,NaN,,,69.977425,,0 / 15,60510,2018-03-12 16:22:19:404
-1.0107,-9.6184,2.3423,-1.2648,-9.3338,2.7296,-0.0373,0.2967,0.2971,0.1497,0.3361,-0.1421,0.0,-3.45,19.95,18.6,348.06,74.36,23.81,0.0,0.97958,50.319,35.77282,-78.67791,263.55,NaN,,,69.977425,,0 / 15,61012,2018-03-12 16:22:19:906
-0.1102,-10.289,-0.7808,0.3288,-9.7763,0.697,0.5229,1.0694,1.0154,-0.4026,0.0858,-0.1975,0.0,-5.4,16.65,22.35,349.91,74.64,24.54,0.0,0.97957,51.698,35.77282,-78.67791,263.55,NaN,,,69.977425,,0 / 15,61510,2018-03-12 16:22:20:404
0.8622,-9.6711,0.297,0.6509,-9.7784,0.3599,0.1677,0.2821,0.7456,-0.0362,0.1097,-0.0138,0.0,-5.7,12.15,22.8,87.55,87.37,-74.26,0.0,0.97957,54.801,35.77282,-78.67791,263.55,NaN,,,69.977425,,0 / 15,62010,2018-03-12 16:22:20:904
1.14,-9.901,0.1102,0.8363,-9.7691,0.1898,0.2767,-0.0805,0.0124,-0.1187,0.0927,-0.0739,0.0,-6.0,14.85,23.7,77.38,85.13,-66.19,0.0,0.97957,52.314,35.77282,-78.67791,263.55,NaN,,,69.977425,,0 / 15,62510,2018-03-12 16:22:21:404
1.0442,-9.8387,0.4119,0.8715,-9.7648,0.246,0.1698,-0.0585,0.1719,0.0187,-0.0511,0.0049,0.0,-4.2,10.95,27.45,80.59,84.7,-74.23,0.0,0.97956,52.859,35.77282,-78.67791,263.55,NaN,,,69.977425,,0 / 15,63010,2018-03-12 16:22:21:904
0.8862,-9.834,0.4646,1.0114,-9.7529,0.1659,0.5294,0.2194,0.2155,-0.0415,0.1374,-0.0383,0.0,-3.6,10.35,27.3,85.03,84.32,-78.66,0.0,0.97956,35.11,35.77282,-78.67791,263.55,NaN,,,69.977425,,0 / 15,63510,2018-03-12 16:22:22:404
1.2071,-9.6232,0.0048,0.891,-9.7645,0.1758,0.5536,-0.2867,0.2206,-0.057,0.2029,0.0443,0.0,-4.5,12.3,29.1,82.19,84.36,-76.59,0.0,0.97956,57.352,35.77282,-78.67791,263.55,NaN,,,69.977425,,0 / 15,64011,2018-03-12 16:22:22:905
1.231,-10.1836,-0.1245,0.9358,-9.7596,-0.2112,-0.2415,0.0487,0.3762,-0.0463,-0.073,0.0736,0.0,-6.75,12.45,25.2,107.71,84.71,-94.48,0.0,0.97956,54.337,35.77282,-78.67791,263.55,NaN,,,69.977425,,0 / 15,64510,2018-03-12 16:22:23:404
1.2406,-9.5226,-0.7712,0.9028,-9.7485,-0.5682,0.4042,0.1666,0.109,-0.042,0.0991,0.0731,0.0,-10.95,16.35,24.0,138.43,83.71,-116.51,0.0,0.97954,48.773,35.77282,-78.67791,263.55,NaN,,,69.977425,,0 / 15,65010,2018-03-12 16:22:23:904
-1.6095,-10.768,0.4072,0.2993,-9.7901,0.4852,0.697,-0.2807,0.2641,0.8347,0.3164,0.1178,0.0,-10.8,21.0,25.05,143.51,85.43,-121.94,0.0,0.97956,47.588,35.77282,-78.67791,263.55,NaN,,,69.977425,,0 / 15,65510,2018-03-12 16:22:24:404
-0.8047,-9.1729,2.4621,-0.4006,-9.6228,1.8472,-0.282,0.006,0.1633,-0.0074,0.3132,-0.1325,0.0,-12.45,27.0,16.95,15.14,78.52,16.49,0.0,0.97956,48.456,35.77282,-78.67791,263.55,NaN,,,69.977425,,0 / 15,66010,2018-03-12 16:22:24:904
1.3412,-10.0591,1.14,0.0866,-9.7316,1.2079,-0.897,-0.5619,0.2649,0.1886,0.2642,0.2275,0.0,-19.2,28.8,17.1,46.62,82.91,-4.1,0.0,0.97958,51.985,35.77282,-78.67791,263.55,NaN,,,69.977425,,0 / 15,66510,2018-03-12 16:22:25:404
2.6872,-10.0639,0.8191,1.1253,-9.7393,0.2228,-1.2595,1.1257,1.2427,-0.5283,-0.0687,-0.0809,0.0,-24.45,27.45,18.3,126.89,83.28,-78.8,0.0,0.97959,56.182,35.77282,-78.67791,263.55,NaN,,,69.977425,,0 / 15,67010,2018-03-12 16:22:25:904
3.9135,-8.1862,-0.7041,1.5402,-9.6744,-0.4508,-1.0296,0.1661,-0.1809,0.366,0.0634,0.6669,0.0,-29.4,29.55,17.85,161.66,80.58,-106.32,0.0,0.97959,51.333,35.77282,-78.67791,263.55,NaN,,,69.977425,,0 / 15,67511,2018-03-12 16:22:26:405
-1.4705,-11.1895,2.4908,-0.0308,-9.6188,1.9102,-2.5942,-0.405,0.1557,0.1007,0.2136,0.0262,0.0,-29.7,34.05,5.25,68.14,78.77,0.92,0.0,0.9796,50.281,35.77282,-78.67791,263.55,NaN,,,69.977425,,0 / 14,68011,2018-03-12 16:22:26:905
1.7484,-8.5263,2.4477,1.4723,-9.6854,0.4432,0.5637,-0.247,0.0281,-0.1933,-0.9513,-0.1128,0.0,-25.2,34.5,15.45,122.77,80.98,-73.25,0.0,0.97959,49.179,35.77282,-78.67791,263.55,NaN,,,69.977425,,0 / 14,68510,2018-03-12 16:22:27:404
-3.1806,-10.0447,-0.6467,0.4957,-9.4723,2.4901,-3.1152,-1.9272,-4.2568,0.465,-0.0629,1.0318,0.0,-15.45,40.05,11.4,105.17,82.71,-66.92,0.0,0.97959,52.585,35.77282,-78.67791,263.55,NaN,,,69.977425,,0 / 14,69010,2018-03-12 16:22:27:904
-0.3353,-12.4254,0.5748,-0.0818,-9.5213,2.347,-0.7934,-2.825,-1.4446,-0.156,-0.6946,0.1657,0.0,-10.2,38.25,13.05,28.34,77.96,-3.56,0.0,0.97958,47.705,35.77282,-78.67791,263.55,NaN,,,69.977425,,0 / 14,69510,2018-03-12 16:22:28:404
1.3125,-9.9968,1.2789,1.471,-9.695,-0.1207,-1.0982,0.3507,0.4597,-0.2625,-0.8794,0.2249,0.0,-6.9,35.25,18.9,60.54,80.26,-54.86,0.0,0.97958,45.113,35.77282,-78.67791,263.55,NaN,,,69.977425,,0 / 14,70010,2018-03-12 16:22:28:904
-0.958,-6.754,3.9997,-0.4756,-9.4075,2.7282,1.2165,0.6972,-1.5066,0.7969,-0.5667,0.6978,0.0,-1.65,38.1,7.5,15.49,77.11,-17.04,0.0,0.9796,50.853,35.77282,-78.67791,263.55,NaN,,,69.977425,,0 / 14,70510,2018-03-12 16:22:29:404
0.9197,-8.9574,0.0862,1.2369,-9.5836,1.6717,0.9848,0.7068,0.2276,-0.4697,-0.9268,-0.9219,0.0,-2.1,37.05,9.6,6.88,74.15,-2.13,0.0,0.97959,45.237,35.77282,-78.67791,263.55,NaN,,,69.977425,,0 / 14,71010,2018-03-12 16:22:29:904
1.4514,-17.5842,-5.3936,0.9869,-9.7514,0.3255,1.9308,0.8063,-1.4075,0.4331,-0.4117,0.3841,0.0,0.6,35.55,8.55,66.66,82.4,-101.9,0.0,0.97959,46.288,35.77282,-78.67791,263.55,NaN,,,69.977425,,0 / 14,71511,2018-03-12 16:22:30:405
3.9614,-14.5186,-0.6706,-0.4797,-9.4888,2.4295,1.057,-3.2574,-1.5747,0.6302,0.5843,0.5993,0.0,1.2,36.15,2.85,352.03,75.98,11.78,0.0,0.9796,47.876,35.77282,-78.67791,263.55,NaN,,,69.977425,,0 / 14,72010,2018-03-12 16:22:30:904
0.4263,-9.0053,3.2908,0.399,-9.7935,0.3146,0.5323,0.3687,3.1298,-0.0122,-0.7329,0.7703,0.0,1.05,34.65,6.75,49.86,85.77,-74.14,0.0,0.9796,46.654,35.77282,-78.67791,263.55,NaN,,,69.977425,,0 / 14,72510,2018-03-12 16:22:31:404
-1.7053,-7.2617,2.2705,-0.7199,-9.5063,2.2985,0.8603,3.4218,0.5431,0.1849,0.587,-0.2247,0.0,4.35,34.5,5.25,336.23,75.78,17.39,0.0,0.97961,51.86,35.77282,-78.67791,263.55,NaN,,,69.977425,,0 / 14,73010,2018-03-12 16:22:31:904
1.6621,-10.3177,1.3077,1.2969,-9.7204,0.0509,0.3899,0.6413,2.5217,-0.7254,-0.5646,-0.9954,0.0,-0.45,33.0,6.45,7.88,80.52,-14.91,0.0,0.97958,45.457,35.77282,-78.67791,263.55,NaN,,,69.977425,,0 / 14,73511,2018-03-12 16:22:32:405
-5.8582,-5.3122,-1.4993,0.8157,-9.7319,0.8918,4.5622,-8.4865,-4.9646,2.1588,0.3963,0.4187,0.0,2.55,32.85,3.0,358.69,82.92,-42.45,0.0,0.97959,47.769,35.77282,-78.67791,263.55,NaN,,,69.977425,,0 / 14,74010,2018-03-12 16:22:32:904
3.4776,-7.2425,3.5111,-0.2813,-9.6015,1.9752,4.9089,2.2651,-3.2712,-1.0897,0.3281,-0.8548,0.0,3.6,31.2,6.75,338.47,78.26,8.1,0.0,0.97962,43.952,35.77282,-78.67791,263.55,NaN,,,69.977425,,0 / 14,74510,2018-03-12 16:22:33:404
-1.4274,-7.8892,1.5759,0.9846,-9.7562,0.1319,-2.7009,1.6889,1.4449,0.3052,0.1172,0.538,0.0,3.75,32.4,6.15,34.17,84.19,-82.37,0.0,0.97961,47.46,35.77282,-78.67791,263.55,NaN,,,69.977425,,0 / 14,75010,2018-03-12 16:22:33:904
-3.2476,-12.8421,2.7016,-0.1077,-9.4792,2.5108,-1.8852,-1.9964,0.4142,0.8203,0.4634,0.5407,0.0,8.25,30.6,0.0,313.61,75.15,2.46,0.0,0.9796,46.69,35.77282,-78.67791,263.55,NaN,,,69.977425,,0 / 14,75510,2018-03-12 16:22:34:404
-1.7388,-7.6257,1.4849,1.4748,-9.6947,0.0897,-2.6587,0.3597,1.1333,-0.4373,-0.7058,0.4033,0.0,4.05,33.0,3.6,22.26,81.33,-86.52,0.0,0.97959,51.699,35.77282,-78.67791,263.55,NaN,,,69.977425,,0 / 14,76011,2018-03-12 16:22:34:905
-1.8681,-12.1188,1.9208,-0.0726,-9.4911,2.4666,-5.0237,1.4932,1.9248,-0.7915,0.8937,-0.9475,0.0,7.95,30.6,-2.85,300.57,75.43,1.69,0.0,0.97961,53.496,35.77282,-78.67791,263.55,NaN,,,69.977425,,0 / 14,76510,2018-03-12 16:22:35:404
-0.1533,-8.5215,0.3976,1.1198,-9.7279,0.5332,-1.4814,0.1694,1.4991,-0.2423,-0.7878,0.4827,0.0,4.2,32.55,-1.5,328.53,78.92,-19.24,0.0,0.9796,47.276,35.77282,-78.67791,263.55,NaN,,,69.977425,,0 / 14,77010,2018-03-12 16:22:35:904
-2.2848,-10.198,0.0287,-0.2183,-9.2635,3.2111,0.0833,-0.5489,-2.3834,-0.2562,0.7366,-0.4846,0.0,7.2,28.2,-9.45,272.28,73.67,-8.54,0.0,0.97961,53.343,35.77282,-78.67791,263.55,NaN,,,69.977425,,0 / 14,77510,2018-03-12 16:22:36:404
-0.273,-9.2975,0.1102,0.6427,-9.6581,1.5744,1.2702,1.9108,0.3835,-0.188,-0.1721,-0.3099,0.0,6.0,32.55,-4.35,299.31,76.85,4.18,0.0,0.97963,49.011,35.77282,-78.67791,263.55,NaN,,,69.977425,,0 / 14,78011,2018-03-12 16:22:36:905
2.9267,-9.3166,0.0623,1.7782,-9.6328,0.4671,0.5725,-0.4443,0.082,-0.1401,-0.399,-0.2518,0.0,2.1,34.35,-2.25,342.56,79.19,-75.28,0.0,0.97963,48.708,35.77282,-78.67791,263.55,NaN,,,69.977425,,0 / 14,78510,2018-03-12 16:22:37:404
-0.1677,-10.4327,-0.6562,2.1995,-9.5108,-0.937,-0.8822,-0.7239,1.5496,0.2568,0.0458,0.4784,0.0,-2.1,36.0,-1.05,346.99,75.89,-113.07,0.0,0.97963,52.807,35.77282,-78.67791,263.55,NaN,,,69.977425,,0 / 14,79011,2018-03-12 16:22:37:905
-1.8346,-7.3671,2.0022,-0.2303,-9.6852,1.521,-0.9964,2.0674,0.3877,-0.049,0.8479,-0.4638,0.0,8.85,33.45,-6.15,255.88,80.97,8.61,0.0,0.97962,50.532,35.77282,-78.67791,263.55,NaN,,,69.977425,,0 / 14,79510,2018-03-12 16:22:38:404
1.5089,-7.6784,-0.0479,0.3065,-9.7958,0.3448,1.4636,2.0527,-0.6933,-0.0074,0.547,-0.4265,0.0,4.2,35.25,5.85,33.9,86.78,-76.3,0.0,0.97963,49.897,35.77282,-78.67791,263.55,NaN,,,69.977425,,0 / 14,80421,2018-03-12 16:22:39:315
-1.2167,-11.2758,-0.2874,0.1157,-9.7786,0.7317,-1.8476,1.0268,-0.6385,0.1721,0.7526,-0.1639,0.0,5.25,35.25,7.95,341.92,85.67,-8.98,0.0,0.97963,51.057,35.77282,-78.67791,263.55,NaN,,,69.977425,,0 / 19,80921,2018-03-12 16:22:39:815
1.2167,-9.7717,1.1304,0.5318,-9.6306,1.7718,1.2514,0.2441,-0.3246,-0.2508,-1.3327,-0.2422,0.0,4.05,35.85,0.75,338.2,79.13,-16.71,0.0,0.97961,43.583,35.77282,-78.67791,263.55,NaN,,,69.977425,,0 / 19,81421,2018-03-12 16:22:40:315
2.4956,-10.1261,0.1916,1.7207,-9.652,-0.2212,-1.6458,1.0461,1.8998,0.5369,-0.5183,0.529,0.0,2.25,36.9,-2.4,348.82,79.81,-97.33,0.0,0.97961,45.545,35.77282,-78.67791,263.55,NaN,,,69.977425,,0 / 19,81921,2018-03-12 16:22:40:815
-5.9636,-10.1261,2.0597,-0.8297,-9.633,1.6394,-0.9671,-2.512,0.0141,0.0405,0.2887,-0.0958,0.0,9.6,31.35,-12.6,198.2,80.04,25.49,0.0,0.97961,43.321,35.77282,-78.67791,263.55,NaN,,,69.977425,,0 / 19,82421,2018-03-12 16:22:41:315
-0.2299,-9.8723,0.1341,1.4159,-9.6832,-0.6336,-0.5376,0.4416,1.0299,-0.7638,-0.0474,-0.3062,0.0,0.15,35.55,-5.7,282.17,84.27,-66.17,0.0,0.97963,54.292,35.77282,-78.67791,263.55,NaN,,,69.977425,,0 / 19,82921,2018-03-12 16:22:41:815
-1.1975,-8.3107,-2.4956,-0.535,-9.7713,0.6368,1.7247,1.7306,1.6882,0.62,1.8306,0.709,0.0,5.55,35.25,0.15,33.51,84.4,-141.73,0.0,0.97963,56.21,35.77282,-78.67791,263.55,NaN,,,69.977425,,0 / 19,83421,2018-03-12 16:22:42:315
5.202,-7.4341,0.0192,-0.7561,-9.6955,1.2635,3.0178,0.6118,1.901,-0.4202,0.3787,-0.5624,0.0,11.55,30.75,1.8,271.54,79.73,35.37,0.0,0.97965,52.387,35.77282,-78.67791,263.55,NaN,,,69.977425,,0 / 19,83921,2018-03-12 16:22:42:815
-0.982,-7.9946,2.51,0.4752,-9.784,-0.4663,-1.2369,1.4498,1.3354,0.2988,-0.0645,0.0635,0.0,8.7,33.6,4.2,47.76,83.48,-130.54,0.0,0.97966,54.777,35.77282,-78.67791,263.55,NaN,,,69.977425,,0 / 19,84422,2018-03-12 16:22:43:316
-5.4415,-9.0628,4.7757,-0.3617,-9.5677,2.1209,-1.214,-0.7396,-0.0037,0.7974,-0.1247,-0.1922,0.0,12.3,31.8,-4.65,266.5,75.34,21.0,0.0,0.97967,59.446,35.77282,-78.67791,263.55,NaN,,,69.977425,,0 / 19,84921,2018-03-12 16:22:43:815
-0.6898,-8.5119,2.3375,0.8664,-9.7616,-0.3617,-0.6116,0.6858,2.4219,-0.3558,-0.7638,0.0326,0.0,8.4,33.6,-3.9,319.04,84.0,-60.63,0.0,0.97966,58.409,35.77282,-78.67791,263.55,NaN,,,69.977425,,0 / 19,85421,2018-03-12 16:22:44:315
-0.6802,-9.2639,0.7568,-0.9049,-9.4892,2.3037,0.5635,0.7644,-1.9344,0.1316,0.4884,-0.0505,0.0,10.65,28.5,-10.2,258.02,82.37,-15.38,0.0,0.97968,56.793,35.77282,-78.67791,263.55,NaN,,,69.977425,,1 / 19,85921,2018-03-12 16:22:44:815
-0.4455,-8.0233,2.0885,0.2696,-9.7405,1.1043,1.1399,2.9709,1.0665,-1.0509,-0.3734,-0.6705,0.0,6.6,32.55,-10.8,217.23,75.95,18.15,0.0,0.97969,50.317,35.77282,-78.67791,263.55,NaN,,,69.977425,,1 / 19,86420,2018-03-12 16:22:45:314
1.6717,-12.7607,-4.0476,0.5703,-9.763,0.7273,2.2316,-2.382,-3.9987,1.6182,0.4224,0.4464,0.0,6.9,31.65,-7.35,340.74,85.95,-111.46,0.0,0.97969,53.868,35.77282,-78.67791,263.55,NaN,,,69.977425,,3 / 19,86921,2018-03-12 16:22:45:815
1.1304,-14.6144,0.0575,-0.469,-9.5415,2.216,-0.8937,-4.8366,-0.0567,0.1673,0.1912,0.6334,0.0,10.5,28.65,-10.05,234.46,78.22,13.02,0.0,0.97968,55.599,35.77282,-78.67791,263.55,NaN,,,69.977425,,3 / 19,87421,2018-03-12 16:22:46:315
-0.9963,-9.5849,0.3928,1.0945,-9.6851,-1.0825,-2.4008,0.1896,1.9214,-0.2258,-1.0147,0.0874,0.0,3.6,34.65,-4.35,341.91,82.11,-101.75,0.0,0.97967,49.607,35.77282,-78.67791,263.55,NaN,,,69.977425,,5 / 19,87921,2018-03-12 16:22:46:815
-2.2034,-8.6796,2.9076,-0.4707,-9.6375,1.7516,-3.743,0.9396,1.7304,-0.6689,0.7712,-0.8026,0.0,12.3,30.45,-10.8,222.0,75.21,25.08,0.0,0.97969,52.93,35.77282,-78.67791,263.55,NaN,,,69.977425,,5 / 19,88421,2018-03-12 16:22:47:315
0.5556,-7.9227,2.2369,0.5582,-9.7871,-0.2669,-2.0064,1.0707,1.1288,-0.6349,-1.5137,-0.565,0.0,11.55,33.9,-1.5,265.18,84.8,14.9,0.0,0.97969,51.137,35.77282,-78.67791,263.55,NaN,,,69.977425,,6 / 19,88921,2018-03-12 16:22:47:815
-2.1172,-5.7768,5.4894,-1.4717,-9.5275,1.7976,3.7784,3.1094,-0.1068,-0.082,0.8522,-0.4729,0.0,17.1,32.55,-2.25,250.76,76.3,39.31,0.0,0.97971,54.448,35.77282,-78.67791,263.55,NaN,,,69.977425,,6 / 19,89421,2018-03-12 16:22:48:315
2.7782,-7.4437,2.6249,-0.0464,-9.8048,0.1847,-0.6304,1.1419,1.5499,-0.4245,-0.163,-1.193,0.0,16.35,32.85,4.2,270.04,77.06,41.35,0.0,0.97968,50.895,35.77282,-78.67791,263.55,NaN,,,69.977425,,6 / 19,89921,2018-03-12 16:22:48:815
4.0332,-25.0519,-1.3556,-1.0977,-9.6606,1.2799,-3.0092,4.3422,-5.2442,3.2763,0.6685,-0.0553,0.0,11.25,33.9,7.05,171.04,87.7,130.49,0.0,0.97967,54.157,35.77282,-78.67791,263.55,NaN,,,69.977425,,6 / 19,90420,2018-03-12 16:22:49:314
5.2164,-19.2416,0.2108,-0.8826,-9.7042,1.1049,6.2245,2.4162,-1.8893,-0.1001,-0.1694,-0.214,0.0,11.4,35.55,10.2,309.04,76.14,29.71,0.0,0.97966,51.929,35.77282,-78.67791,263.55,NaN,,,69.977425,,6 / 19,90920,2018-03-12 16:22:49:814
5.9492,-21.8857,-1.6334,-0.1531,-9.805,0.0896,1.9451,0.6654,-1.72,2.6952,-0.2162,-0.0867,0.0,11.7,35.85,13.8,261.74,88.96,59.66,0.0,0.97967,49.932,35.77282,-78.67791,263.55,NaN,,,69.977425,,6 / 19,91420,2018-03-12 16:22:50:314
2.8309,-15.4143,-0.7999,-1.1322,-9.4144,2.5014,-1.3779,-5.473,-0.685,-0.0793,-0.1086,0.6435,0.0,10.8,37.8,9.9,316.74,73.74,24.35,0.0,0.97968,52.867,35.77282,-78.67791,263.55,NaN,,,69.977425,,8 / 19,91921,2018-03-12 16:22:50:815
-0.479,-9.7525,2.8022,-0.3818,-9.7991,0.0451,-0.009,0.0765,3.0905,0.2317,-0.1331,0.0629,0.0,13.5,36.15,13.8,307.61,87.38,11.14,0.0,0.97966,52.058,35.77282,-78.67791,263.55,NaN,,,69.977425,,8 / 19,92421,2018-03-12 16:22:51:315
-3.0704,-8.7131,1.2358,-1.2532,-9.4926,2.1189,-4.9424,-0.1197,3.9787,-0.6348,0.9502,-1.0758,0.0,14.7,36.3,7.95,298.03,71.43,37.1,0.0,0.97967,54.011,35.77282,-78.67791,263.55,NaN,,,69.977425,,11 / 19,92921,2018-03-12 16:22:51:815
-1.9831,-8.8137,1.9208,-0.2578,-9.8032,0.0463,-1.502,0.9703,2.5836,-0.4655,-0.6306,0.1892,0.0,10.8,36.3,15.75,308.69,80.93,29.75,0.0,0.97964,51.932,35.77282,-78.67791,263.55,NaN,,,69.977425,,11 / 19,93421,2018-03-12 16:22:52:315
1.8154,-6.9503,0.5173,-2.0303,-9.3506,2.1482,3.061,-0.2701,-3.5833,-0.3834,0.9801,-0.801,0.0,13.5,36.15,11.85,306.79,75.65,26.23,0.0,0.97968,49.708,35.77282,-78.67791,263.55,NaN,,,69.977425,,11 / 19,93921,2018-03-12 16:22:52:815
-0.6323,-8.8903,1.6095,-0.3041,-9.8002,-0.185,1.0935,1.5595,1.397,-1.1712,-1.0626,-0.1054,0.0,7.5,37.95,17.55,301.62,81.91,47.63,0.0,0.97968,53.494,35.77282,-78.67791,263.55,NaN,,,69.977425,,11 / 19,94421,2018-03-12 16:22:53:315
-6.7635,-4.3541,0.2874,-0.3342,-9.7998,-0.151,4.5541,-6.599,-1.4478,2.3948,-0.1944,-0.3999,0.0,11.25,37.35,14.1,209.76,87.86,114.31,0.0,0.97967,51.086,35.77227,-78.67783,348.39,NaN,,,80.64516,,12 / 19,94921,2018-03-12 16:22:53:815
4.6415,-9.0963,2.5339,-1.3983,-9.5473,1.7506,9.0082,4.6564,-7.8337,-1.2591,1.0674,-0.7019,0.0,9.45,37.8,16.5,312.46,76.79,38.62,0.0,0.97971,50.71,35.77227,-78.67783,348.39,NaN,,,80.64516,,12 / 19,95421,2018-03-12 16:22:54:315
-0.4886,-8.0281,0.2012,-0.3886,-9.7985,0.096,1.3331,0.0435,-0.1477,0.1774,0.4027,-0.2242,0.0,11.7,36.15,17.55,253.94,87.66,76.13,0.0,0.97968,50.484,35.77227,-78.67783,348.39,NaN,,,80.64516,,12 / 19,95921,2018-03-12 16:22:54:815
2.3471,-24.6783,-1.528,-2.023,-9.2925,2.3934,6.8509,-11.3619,-4.9399,0.3921,0.5177,0.6792,0.0,13.05,38.25,12.6,306.59,71.36,40.21,0.0,0.97967,48.111,35.77227,-78.67783,348.39,NaN,,,80.64516,,12 / 19,96421,2018-03-12 16:22:55:315
-2.0406,-9.2879,4.7086,-0.9734,-9.7567,0.1712,-0.9142,1.0406,4.2551,-0.041,-0.5502,0.2936,0.0,11.55,37.05,16.05,253.54,84.22,80.02,0.0,0.97966,47.959,35.77227,-78.67783,348.39,NaN,,,80.64516,,12 / 19,96921,2018-03-12 16:22:55:815
-6.0642,-8.8903,4.2679,-1.6502,-9.3897,2.2981,0.0119,-0.5293,1.5825,0.4592,0.1007,-0.1453,0.0,9.9,39.0,14.25,315.46,73.23,35.68,0.0,0.97966,57.681,35.77227,-78.67783,348.39,NaN,,,80.64516,,12 / 19,97421,2018-03-12 16:22:56:315
-2.1459,-9.2304,5.3648,-1.0624,-9.7489,0.0108,-2.1529,0.3946,4.3104,-0.4239,-0.6679,0.3436,0.0,12.0,36.6,17.85,280.05,84.49,55.57,0.0,0.97965,51.086,35.77227,-78.67783,348.39,NaN,,,80.64516,,12 / 19,97921,2018-03-12 16:22:56:815
-7.6545,-7.4677,6.7587,-2.0661,-9.3205,2.2426,-4.4522,9.0E-4,1.0548,-0.3227,0.596,-0.377,0.0,12.3,38.1,13.65,307.36,70.05,45.81,0.0,0.97966,55.576,35.77227,-78.67783,348.39,NaN,,,80.64516,,12 / 19,98421,2018-03-12 16:22:57:315
-2.5052,-9.5849,3.4728,-1.0197,-9.7302,0.6741,2.7705,1.5273,1.2212,-0.2109,-0.8815,0.3633,0.0,7.95,37.2,19.2,317.05,69.85,44.01,0.0,0.97965,51.706,35.77227,-78.67783,348.39,NaN,,,80.64516,,12 / 19,98920,2018-03-12 16:22:57:814
0.1629,-8.7083,-1.5472,-1.909,-9.3787,2.1367,-4.7934,5.5682,-1.9381,0.2126,1.126,-0.6316,0.0,10.5,38.85,14.4,272.7,82.48,65.92,0.0,0.97966,54.722,35.77227,-78.67783,348.39,NaN,,,80.64516,,12 / 19,99421,2018-03-12 16:22:58:315
0.958,-7.5826,2.9746,-1.5714,-9.5416,1.6304,1.1927,2.9249,-2.6522,-0.9699,-1.2863,-0.108,0.0,7.5,40.05,16.65,321.13,69.01,41.19,0.0,0.97964,48.672,35.77227,-78.67783,348.39,NaN,,,80.64516,,12 / 19,99921,2018-03-12 16:22:58:815
-7.3048,-3.3099,1.2646,-1.7467,-9.314,2.5236,-3.3265,2.0904,-5.9266,0.0847,-0.6243,1.3226,0.0,10.5,39.9,12.0,261.79,83.33,72.27,0.0,0.97968,54.11,35.77227,-78.67783,348.39,NaN,,,80.64516,,12 / 19,100420,2018-03-12 16:22:59:314
2.5244,-10.0687,4.2057,-1.6452,-9.5035,1.7742,3.8351,0.6176,1.779,-0.9885,-0.3633,-0.8814,0.0,11.55,38.1,12.75,308.72,70.18,42.95,0.0,0.97968,49.111,35.77227,-78.67783,348.39,NaN,,,80.64516,,12 / 19,100921,2018-03-12 16:22:59:815
2.0406,-12.9092,-1.1496,-0.8956,-9.7269,0.8692,2.4641,-2.5748,-1.8071,0.9939,2.0043,0.2004,0.0,11.25,39.15,11.25,286.92,82.69,45.86,0.0,0.97967,51.896,35.77227,-78.67783,348.39,NaN,,,80.64516,,12 / 19,101421,2018-03-12 16:23:00:315
0.3784,-14.5473,1.0394,-1.9005,-9.2227,2.7387,-1.3381,-5.7638,-1.2358,-1.5313,0.5891,-0.6961,0.0,11.4,38.25,13.05,316.05,70.13,34.76,0.0,0.97968,51.679,35.77227,-78.67783,348.39,NaN,,,80.64516,,12 / 19,101921,2018-03-12 16:23:00:815
-0.7712,-10.5141,0.7616,-0.8766,-9.767,0.0881,0.4698,-0.036,0.2056,-0.1262,-0.8522,0.358,0.0,9.75,37.8,18.15,297.27,86.01,40.18,0.0,0.97968,51.67,35.77227,-78.67783,348.39,NaN,,,80.64516,,12 / 19,102421,2018-03-12 16:23:01:315
-4.1625,-9.3597,1.4993,-2.1429,-9.3152,2.1922,-2.6102,0.5252,-0.1845,-0.0564,0.1763,-0.4761,0.0,10.2,40.2,13.65,312.23,71.78,44.35,0.0,0.97969,49.62,35.77227,-78.67783,348.39,NaN,,,80.64516,,12 / 19,102920,2018-03-12 16:23:01:814
-0.3545,-8.6508,1.5424,-1.0668,-9.7456,0.2347,-0.1078,1.3302,1.2828,-0.5608,-0.8661,-0.1208,0.0,9.15,37.8,21.0,309.64,75.5,45.32,0.0,0.97968,54.835,35.77227,-78.67783,348.39,NaN,,,80.64516,,12 / 19,103421,2018-03-12 16:23:02:315
-0.0287,-4.7469,2.692,-2.5028,-9.1376,2.5318,2.9554,1.3598,-2.6886,0.5588,0.8479,-0.271,0.0,14.1,37.95,13.05,306.01,75.83,29.73,0.0,0.97966,56.67,35.77227,-78.67783,348.39,NaN,,,80.64516,,12 / 19,103921,2018-03-12 16:23:02:815
-2.9028,-8.761,1.5041,-1.1738,-9.6648,1.1767,1.3366,1.2339,0.1237,-1.3901,-1.0568,-0.3807,0.0,6.6,40.95,17.25,320.66,69.49,45.66,0.0,0.97969,56.453,35.77227,-78.67783,348.39,NaN,,,80.64516,,12 / 19,104421,2018-03-12 16:23:03:315
1.8777,-4.7421,2.6202,-1.5283,-9.4512,2.1238,-1.3518,-4.8914,-10.2289,0.9161,1.575,0.3106,0.0,12.0,41.1,13.05,252.66,82.7,81.2,0.0,0.97973,52.06,35.77227,-78.67783,348.39,NaN,,,80.64516,,12 / 19,104921,2018-03-12 16:23:03:815
-0.0958,-9.513,1.3316,-2.6329,-9.1538,2.3335,6.766,0.3242,-5.9726,-1.111,0.409,-0.2406,0.0,12.45,39.75,13.8,306.74,72.0,44.94,0.0,0.97976,50.447,35.77227,-78.67783,348.39,NaN,,,80.64516,,12 / 19,105422,2018-03-12 16:23:04:316
-3.6308,-9.24,-9.925,-1.5781,-9.6771,0.186,0.7345,1.9237,-0.7413,2.652,0.898,0.2712,0.0,10.5,38.1,16.95,261.68,80.68,83.28,0.0,0.97978,52.845,35.77227,-78.67783,348.39,NaN,,,80.64516,,12 / 19,105921,2018-03-12 16:23:04:815
2.8309,-10.9548,3.7746,-2.9724,-8.965,2.6389,-0.3932,-8.2821,-0.9433,-1.4631,0.205,-1.0231,0.0,10.5,41.55,14.4,315.37,66.09,48.4,0.0,0.97977,51.593,35.77227,-78.67783,348.39,NaN,,,80.64516,,12 / 19,106421,2018-03-12 16:23:05:315
3.7793,-21.239,0.1581,-2.0769,-9.569,0.5404,-0.6578,0.2497,1.6998,2.6383,-1.1392,-0.28,0.0,9.15,38.1,20.55,282.42,77.36,75.41,0.0,0.97979,53.828,35.77227,-78.67783,348.39,NaN,,,80.64516,,12 / 19,106921,2018-03-12 16:23:05:815
-0.5221,-18.4848,-0.958,-3.3324,-8.8624,2.5542,7.7729,0.7566,-6.8005,-0.1607,-0.4452,0.6324,0.0,7.2,44.25,13.05,323.86,68.01,48.23,0.0,0.97978,53.035,35.77227,-78.67783,348.39,NaN,,,80.64516,,12 / 19,107422,2018-03-12 16:23:06:316
-2.2944,-8.2963,3.8799,-1.9056,-9.6098,0.4371,1.3222,-0.3837,0.3404,0.8066,0.0741,-0.0824,0.0,11.55,38.4,21.45,271.77,78.5,77.08,0.0,0.97978,51.676,35.77227,-78.67783,348.39,NaN,,,80.64516,,12 / 19,107922,2018-03-12 16:23:06:816
-7.6257,-8.349,5.0583,-3.1204,-8.6875,3.3106,0.2759,0.0761,-3.0971,-0.2352,0.905,-0.7045,0.0,13.95,38.85,11.55,309.54,66.06,42.68,0.0,0.97979,54.448,35.77227,-78.67783,348.39,NaN,,,80.64516,,12 / 19,108421,2018-03-12 16:23:07:315
-3.674,-8.0808,2.5339,-1.6586,-9.6376,0.7317,-1.7061,1.5849,1.671,-0.3961,-0.0846,0.1796,0.0,10.35,37.95,19.95,284.96,79.35,66.19,0.0,0.97977,52.1,35.77227,-78.67783,348.39,NaN,,,80.64516,,12 / 19,108921,2018-03-12 16:23:07:815
-0.5844,-6.1265,-0.3928,-3.2168,-8.7039,3.1726,2.5505,2.6466,-2.8265,-0.6656,0.3623,-0.7887,0.0,13.5,39.3,12.6,312.06,62.57,45.4,0.0,0.97977,51.71,35.77227,-78.67783,348.39,NaN,,,80.64516,,12 / 19,109420,2018-03-12 16:23:08:314
-1.2071,-10.5141,-0.2874,-2.4765,-9.3544,1.5913,1.6363,0.0169,-3.7733,0.1722,-0.3861,-1.2622,0.0,6.15,39.0,22.05,309.98,72.53,57.28,0.0,0.97982,55.071,35.77227,-78.67783,348.39,NaN,,,80.64516,,12 / 19,109921,2018-03-12 16:23:08:815
-8.0473,-6.0881,-7.3862,-2.334,-9.3316,1.9088,4.2271,-11.9583,-4.4295,0.7629,1.7855,0.7378,0.0,12.45,40.05,14.7,303.05,72.09,50.72,0.0,0.97981,49.512,35.77227,-78.67783,348.39,NaN,,,80.64516,,12 / 19,110422,2018-03-12 16:23:09:316
3.7458,-8.6843,-4.2871,-2.6853,-9.2245,1.9666,3.438,2.8695,-0.8135,-1.2414,0.9445,-0.6779,0.0,9.9,40.8,14.25,320.29,61.54,50.23,0.0,0.9798,47.469,35.77227,-78.67783,348.39,NaN,,,80.64516,,12 / 19,110922,2018-03-12 16:23:09:816
-3.6021,-10.7872,-0.2443,-2.4963,-9.4099,1.1802,5.5006,-14.234,-0.9824,1.2433,0.2707,0.496,0.0,9.15,36.75,21.75,273.76,77.14,84.66,0.0,0.97979,52.246,35.77227,-78.67783,348.39,NaN,,,80.64516,,12 / 19,111421,2018-03-12 16:23:10:315
4.1961,-6.8545,-1.7771,-3.7823,-8.688,2.5266,9.223,7.6402,-7.7352,-0.2715,-0.4388,0.3442,0.0,8.1,42.3,14.4,319.8,64.99,55.32,0.0,0.9798,47.395,35.77227,-78.67783,348.39,NaN,,,80.64516,,12 / 19,111922,2018-03-12 16:23:10:816
0.0048,-6.9168,-0.7137,-2.6039,-9.4492,0.3195,1.0325,2.9969,0.4216,0.8891,0.3884,0.0534,0.0,7.95,36.6,24.9,278.03,76.85,83.03,0.0,0.97978,50.261,35.77227,-78.67783,348.39,NaN,,,80.64516,,12 / 19,112421,2018-03-12 16:23:11:315
-1.4035,-14.6863,-0.9005,-3.8802,-8.498,2.9832,-1.9445,-5.74,-1.9208,0.9349,0.3783,0.5765,0.0,8.1,42.3,16.05,321.47,61.06,56.22,0.0,0.97976,49.769,35.77227,-78.67783,348.39,NaN,,,80.64516,,12 / 19,112921,2018-03-12 16:23:11:815
-4.9673,-10.1118,4.9625,-2.6197,-9.4456,0.2966,-2.2785,-0.0963,3.6329,0.6399,0.2946,-0.1996,0.0,8.1,37.35,23.85,288.93,74.33,74.69,0.0,0.97976,50.357,35.77227,-78.67783,348.39,NaN,,,80.64516,,12 / 19,113421,2018-03-12 16:23:12:315
-4.8954,-9.7381,3.9901,-3.7013,-8.6503,2.7644,-4.4384,0.2398,3.1,0.545,-0.2455,-0.1112,0.0,10.95,40.8,12.6,319.22,59.32,54.68,0.0,0.97976,54.653,35.77227,-78.67783,348.39,NaN,,,80.64516,,12 / 19,113921,2018-03-12 16:23:12:815
-3.2955,-8.0089,2.0406,-2.5343,-9.4499,0.6686,-0.6918,1.1883,0.743,-0.6076,-0.3813,0.2127,0.0,7.35,39.45,23.85,309.89,70.53,56.56,0.0,0.97975,51.341,35.77227,-78.67783,348.39,NaN,,,80.64516,,12 / 19,114421,2018-03-12 16:23:13:315
-0.6514,-7.5347,-0.3305,-4.0734,-8.3053,3.2558,3.0896,0.5489,-3.2265,-0.1932,0.5625,-0.8254,0.0,15.15,39.0,11.85,306.08,63.81,50.4,0.0,0.97973,54.288,35.77227,-78.67783,348.39,NaN,,,80.64516,,12 / 19,114922,2018-03-12 16:23:13:816
-0.6419,-8.0856,2.1507,-3.0792,-9.2173,1.3153,2.705,1.6442,0.786,-1.0816,-0.8969,-0.4845,0.0,7.95,40.35,19.95,316.25,60.23,60.67,0.0,0.97973,52.68,35.77227,-78.67783,348.39,NaN,,,80.64516,,12 / 19,115421,2018-03-12 16:23:14:315
-3.6213,-5.0343,2.0741,-3.6167,-8.6976,2.728,-3.1691,4.523,-4.2066,0.9264,0.3117,0.4332,0.0,11.25,40.95,16.05,294.23,70.84,71.5,0.0,0.97973,52.826,35.77227,-78.67783,348.39,NaN,,,80.64516,,12 / 19,115921,2018-03-12 16:23:14:815
3.2716,-10.2459,6.7779,-4.3875,-8.3936,2.5433,8.8144,0.2724,-3.3445,-1.169,-0.4031,-0.5074,0.0,11.85,39.9,16.95,312.66,58.86,59.9,0.0,0.97977,52.261,35.77227,-78.67783,348.39,NaN,,,80.64516,,12 / 19,116421,2018-03-12 16:23:15:315
1.0825,-17.6417,0.0096,-3.1067,-9.2415,1.055,2.6268,-4.1062,0.2266,-0.002,0.8326,1.0148,0.0,12.6,41.55,15.75,290.69,70.45,71.24,0.0,0.97976,54.414,35.77227,-78.67783,348.39,NaN,,,80.64516,,12 / 19,116920,2018-03-12 16:23:15:814
-5.2403,-17.9291,0.3353,-4.9012,-8.0013,2.851,4.9634,-5.9134,-4.473,-0.8297,1.7061,-1.6489,0.0,17.25,38.25,12.15,308.23,54.68,59.81,0.0,0.97977,52.299,35.77227,-78.67783,348.39,NaN,,,80.64516,,12 / 19,117421,2018-03-12 16:23:16:315
-2.8788,-8.8951,3.8416,-3.2546,-9.2499,0.1345,-0.1891,0.8279,2.7301,0.8614,0.578,0.2249,0.0,8.85,37.95,22.8,282.17,70.6,87.63,0.0,0.97975,52.379,35.77227,-78.67783,348.39,NaN,,,80.64516,,12 / 19,117921,2018-03-12 16:23:16:815
-9.446,-5.9875,4.8188,-3.8928,-8.6458,2.5035,0.2372,0.215,2.3079,-0.4206,0.1939,0.7613,0.0,7.65,43.35,13.65,325.03,58.28,58.45,0.0,0.97974,56.011,35.77227,-78.67783,348.39,NaN,,,80.64516,,12 / 19,118421,2018-03-12 16:23:17:315
-2.4046,-8.8807,0.8718,-3.4167,-9.1883,0.267,-0.0682,0.8713,-1.0237,0.969,0.1945,-0.0584,0.0,8.7,37.35,22.2,292.2,69.98,75.62,0.0,0.97975,57.946,35.77227,-78.67783,348.39,NaN,,,80.64516,,12 / 19,118921,2018-03-12 16:23:17:815
-5.5469,-10.4279,3.0417,-4.2028,-8.5182,2.4387,-3.5231,2.0803,1.0406,0.6745,-0.5475,0.0028,0.0,10.95,40.35,15.0,317.16,58.15,57.72,0.0,0.97975,57.792,35.77227,-78.67783,348.39,NaN,,,80.64516,,12 / 19,119422,2018-03-12 16:23:18:316
-5.8295,-9.8196,-0.2203,-3.448,-9.1575,0.6495,-2.0097,0.4944,3.4441,-0.313,-0.5699,0.0252,0.0,7.95,37.95,21.15,305.38,65.8,68.1,0.0,0.97977,53.167,35.77227,-78.67783,348.39,NaN,,,80.64516,,12 / 19,119922,2018-03-12 16:23:18:816
-8.4065,-7.6928,3.171,-4.5977,-7.8483,3.6656,1.9772,-0.2509,-5.3163,-0.0755,0.7463,-0.2448,0.0,19.35,41.85,6.15,303.2,61.0,50.01,0.0,0.97976,54.529,35.77227,-78.67783,348.39,NaN,,,80.64516,,12 / 19,120421,2018-03-12 16:23:19:315
-1.6526,-8.4353,2.1938,-3.2456,-9.1867,1.1141,2.3096,0.6356,0.8151,-1.3448,-0.9257,-0.3056,0.0,13.65,41.55,9.6,313.58,59.53,62.33,0.0,0.97976,54.176,35.77227,-78.67783,348.39,NaN,,,80.64516,,12 / 19,120921,2018-03-12 16:23:19:815
-1.3843,-1.6574,5.6043,-4.7744,-8.1305,2.6964,3.3762,6.1886,2.5709,1.1719,-0.1107,0.9211,0.0,16.8,31.2,5.55,253.08,68.03,78.82,0.0,0.97976,55.11,35.77227,-78.67783,348.39,NaN,,,80.64516,,12 / 19,121422,2018-03-12 16:23:20:316
-0.4407,-8.0185,0.6658,-5.0339,-7.9264,2.8287,4.5876,-3.6707,-2.9964,-0.7109,0.1449,-0.8914,0.0,12.0,29.85,13.5,309.21,53.93,60.67,0.0,0.97975,53.222,35.77227,-78.67783,348.39,NaN,,,80.64516,,12 / 19,121920,2018-03-12 16:23:20:814
-0.9101,-11.1704,-1.7723,-4.2617,-8.5882,2.0619,-0.1911,-6.0668,-6.7183,1.3727,0.2323,0.3645,0.0,10.95,33.45,17.55,286.61,65.4,83.3,0.0,0.97974,56.09,35.77227,-78.67783,348.39,NaN,,,80.64516,,12 / 19,122421,2018-03-12 16:23:21:315
-8.0856,-18.1016,0.024,-4.8847,-8.1188,2.5289,-1.762,-0.6043,2.3166,0.7458,-0.3153,1.1507,0.0,14.1,38.7,6.9,318.39,55.88,62.63,0.0,0.97974,51.845,35.77227,-78.67783,348.39,NaN,,,80.64516,,12 / 19,122921,2018-03-12 16:23:21:815
-4.0045,-8.8855,2.5627,-3.9687,-8.9362,0.7512,-0.3388,1.2701,2.5823,-0.5416,-0.5491,0.2724,0.0,13.2,37.05,15.75,289.19,65.68,79.28,0.0,0.97973,54.457,35.77227,-78.67783,348.39,NaN,,,80.64516,,12 / 19,123422,2018-03-12 16:23:22:316
-6.8737,-6.2606,2.4812,-5.286,-7.5831,3.2749,0.3903,-1.0512,-2.1341,-0.4483,0.6371,-0.8014,0.0,20.25,33.9,5.55,304.78,50.65,58.22,0.0,0.97975,49.154,35.77227,-78.67783,348.39,NaN,,,80.64516,,12 / 19,123922,2018-03-12 16:23:22:816
-2.5339,-9.9298,1.2694,-3.5935,-9.0695,1.0008,0.9688,-0.3622,0.3345,-1.0896,-1.0109,0.0902,0.0,15.9,36.9,13.5,306.82,55.13,62.4,0.0,0.97975,52.956,35.77227,-78.67783,348.39,NaN,,,80.64516,,12 / 19,124421,2018-03-12 16:23:23:315
-6.845,-4.1146,-4.9433,-4.1384,-8.5306,2.5047,-2.8705,3.2349,-8.239,0.2238,0.2413,0.7773,0.0,21.0,34.95,5.1,235.71,67.98,81.62,0.0,0.97974,52.024,35.77227,-78.67783,348.39,NaN,,,80.64516,,12 / 19,124921,2018-03-12 16:23:23:815
0.1964,-7.2473,-2.4812,-4.8027,-8.0459,2.8925,4.6693,-1.3317,-5.3312,-0.7946,0.8608,-0.5649,0.0,24.45,32.85,2.7,282.33,55.13,58.94,0.0,0.97974,51.709,35.77227,-78.67783,348.39,NaN,,,80.64516,,12 / 19,125421,2018-03-12 16:23:24:315
-3.832,-8.3011,1.9112,-3.7048,-9.0765,0.251,0.3323,-0.5161,0.9922,0.3405,-0.1449,-0.0706,0.0,19.95,32.55,10.8,250.42,67.86,83.12,0.0,0.97975,55.182,35.77227,-78.67783,348.39,NaN,,,80.64516,,12 / 19,125921,2018-03-12 16:23:24:815
-4.1146,-7.8413,0.3114,-4.5782,-8.3814,2.2276,-0.6831,0.4747,-1.3668,-0.2342,0.7894,-0.549,0.0,22.35,32.55,6.75,285.54,56.98,61.17,0.0,0.97976,53.914,35.77227,-78.67783,348.39,NaN,,,80.64516,,12 / 19,126421,2018-03-12 16:23:25:315
-3.3291,-8.167,1.6238,-4.2894,-8.7834,0.7897,0.5346,0.3491,0.5326,-0.5181,0.2637,-0.3295,0.0,16.8,33.9,15.75,278.29,63.59,79.57,0.0,0.97976,50.735,35.77227,-78.67783,348.39,NaN,,,80.64516,,12 / 19,126921,2018-03-12 16:23:25:815
-6.7635,-10.2028,1.8442,-3.4251,-9.1879,-0.149,-3.3552,-1.9988,1.6185,1.4691,-0.1459,1.1757,0.0,12.9,36.3,19.8,268.83,69.54,92.49,0.0,0.97975,53.462,35.77227,-78.67783,348.39,NaN,,,80.64516,,12 / 19,127421,2018-03-12 16:23:26:315
-7.5635,-9.3597,3.1039,-4.2533,-8.617,1.9565,-3.4407,-0.2458,1.3093,0.3351,-0.0181,0.3352,0.0,18.15,40.5,8.7,298.46,61.48,65.3,0.0,0.97975,50.475,35.77227,-78.67783,348.39,NaN,,,80.64516,,12 / 19,127921,2018-03-12 16:23:26:815
-3.3099,-6.9695,2.1555,-2.7789,-9.4046,-0.0337,-1.0946,1.3746,2.4707,-0.4121,-0.8469,0.3869,0.0,18.0,39.3,17.85,250.15,73.54,90.7,0.0,0.97978,51.314,35.77227,-78.67783,348.39,NaN,,,80.64516,,12 / 19,128421,2018-03-12 16:23:27:315
-7.5204,-13.0576,2.486,-4.482,-8.3336,2.5755,-6.196,2.7663,3.472,0.4875,0.1326,-0.2113,0.0,24.0,37.35,5.1,283.59,58.19,60.12,0.0,0.97977,54.455,35.77227,-78.67783,348.39,NaN,,,80.64516,,1 / 19,128921,2018-03-12 16:23:27:815
-6.6534,-9.4076,4.7613,-3.3826,-9.2045,0.0737,-2.4232,2.1175,2.1125,-0.2364,-0.7126,0.2319,0.0,21.15,38.25,14.25,246.42,69.82,88.75,0.0,0.97978,54.93,35.77227,-78.67783,348.39,NaN,,,80.64516,,1 / 19,129421,2018-03-12 16:23:28:315
-12.0565,-6.2271,3.468,-4.8553,-7.9867,2.9679,3.0541,0.1063,-2.9466,-0.5826,1.4541,-0.8888,0.0,27.15,32.25,1.8,272.38,54.53,58.56,0.0,0.97977,55.04,35.77227,-78.67783,348.39,NaN,,,80.64516,,3 / 19,129921,2018-03-12 16:23:28:815
-5.5373,-7.3767,2.4908,-4.0028,-8.8937,1.0244,1.3252,1.7691,1.3101,-0.2859,-0.7814,-0.0126,0.0,22.5,35.1,12.15,292.47,53.51,62.88,0.0,0.97979,53.766,35.77227,-78.67783,348.39,NaN,,,80.64516,,3 / 19,130420,2018-03-12 16:23:29:314
-1.8442,-8.0521,-0.9628,-5.4667,-7.6805,2.7009,2.5649,-0.3796,-4.0361,0.1146,1.0818,-0.639,0.0,25.65,31.65,5.7,269.53,57.25,64.05,0.0,0.9798,55.893,35.77227,-78.67783,348.39,NaN,,,80.64516,,4 / 19,130921,2018-03-12 16:23:29:815
-4.3062,-8.8855,0.6754,-4.1982,-8.8591,0.2495,3.2522,-0.3315,2.0479,-1.6489,-0.1555,-0.1212,0.0,24.45,35.25,12.75,281.22,56.11,71.9,0.0,0.97978,54.831,35.77227,-78.67783,348.39,NaN,,,80.64516,,4 / 19,131421,2018-03-12 16:23:30:315
-8.6077,-4.1578,-5.7576,-5.5959,-7.872,1.6994,2.406,4.997,4.0895,-0.0228,1.6458,0.7874,0.0,25.05,35.7,10.35,250.43,63.17,82.44,0.0,0.97978,54.253,35.77227,-78.67783,348.39,NaN,,,80.64516,,6 / 19,131921,2018-03-12 16:23:30:815
-0.503,-11.2231,1.6334,-5.7888,-7.565,2.3303,2.6464,-6.0859,-3.0009,-0.842,0.2301,-0.9197,0.0,27.15,34.95,5.55,274.8,54.01,72.68,0.0,0.97977,52.045,35.77227,-78.67783,348.39,NaN,,,80.64516,,6 / 19,132420,2018-03-12 16:23:31:314
-6.1504,-7.2809,1.0538,-4.7205,-8.5957,-0.0376,0.8,0.5954,2.6033,1.1455,-0.1577,0.4833,0.0,27.0,34.8,13.8,239.4,62.67,90.74,0.0,0.97977,54.559,35.77227,-78.67783,348.39,NaN,,,80.64516,,6 / 19,132921,2018-03-12 16:23:31:815
-7.7503,-10.5477,1.3316,-6.038,-7.3604,2.3533,5.4796,-8.1096,-5.7504,-0.0481,-0.3213,0.5435,0.0,29.7,30.75,4.2,257.38,52.7,72.0,0.0,0.97977,51.353,35.77227,-78.67783,348.39,NaN,,,80.64516,,6 / 19,133420,2018-03-12 16:23:32:314
-3.5207,-9.6615,2.3806,-4.9244,-8.4788,0.1738,1.8278,1.2224,3.1633,0.2297,-0.474,-0.1037,0.0,27.3,33.0,12.6,244.51,60.31,87.86,0.0,0.9798,51.891,35.77227,-78.67783,348.39,NaN,,,80.64516,,8 / 19,133921,2018-03-12 16:23:32:815
-8.0425,-7.5443,1.643,-5.6267,-7.7503,2.1079,-3.1928,2.2467,2.9688,-0.5488,0.8015,-0.6022,0.0,29.4,29.85,5.25,276.68,48.02,65.81,0.0,0.97977,53.535,35.77227,-78.67783,348.39,NaN,,,80.64516,,8 / 19,134420,2018-03-12 16:23:33:314
-6.0163,-8.7131,1.6957,-5.0719,-8.3924,0.1158,-0.731,0.4677,1.3597,-0.3187,0.2955,0.2575,0.0,26.85,31.2,14.85,267.09,55.21,76.71,0.0,0.97977,52.01,35.77227,-78.67783,348.39,NaN,,,80.64516,,8 / 19,134921,2018-03-12 16:23:33:815
-2.9411,-4.1434,3.0992,-6.288,-7.1737,2.2736,3.6567,0.5906,-1.4443,1.2073,0.4143,0.7102,0.0,29.7,31.5,9.9,264.88,54.62,70.3,0.0,0.97975,53.315,35.77227,-78.67783,348.39,NaN,,,80.64516,,8 / 19,135421,2018-03-12 16:23:34:315
-1.5807,-7.0126,-0.8143,-5.5122,-8.0191,1.2163,3.4081,1.1683,-0.5171,-0.2479,-0.48,-0.6869,0.0,24.0,34.95,12.45,297.58,47.39,69.29,0.0,0.97975,56.096,35.77227,-78.67783,348.39,NaN,,,80.64516,,8 / 19,135921,2018-03-12 16:23:34:815
-1.7196,-14.2743,-2.7591,-5.092,-8.2614,1.4113,2.9573,-6.196,-5.0918,0.8121,-0.3106,0.4657,0.0,22.35,33.6,16.05,266.26,58.95,89.01,0.0,0.97978,53.329,35.77227,-78.67783,348.39,NaN,,,80.64516,,8 / 19,136421,2018-03-12 16:23:35:315
-8.6604,-13.2971,0.867,-6.1267,-7.1758,2.6724,0.8547,-9.1468,-3.0407,-0.5414,0.7067,-0.7774,0.0,22.35,33.6,9.9,296.18,50.5,69.94,0.0,0.97979,52.76,35.77227,-78.67783,348.39,NaN,,,80.64516,,8 / 19,136921,2018-03-12 16:23:35:815
-4.8236,-8.4017,1.2263,-5.3509,-8.2181,0.0373,1.6623,-1.4876,0.2026,-0.7581,-0.5897,-0.1505,0.0,23.25,29.25,19.5,270.05,56.31,80.32,0.0,0.97976,56.657,35.77227,-78.67783,348.39,NaN,,,80.64516,,8 / 19,137421,2018-03-12 16:23:36:315
-6.5384,-7.9323,2.4094,-6.0492,-7.2101,2.7553,1.6405,-0.0266,-3.4541,0.0536,0.8239,-0.1441,0.0,23.7,31.5,12.0,284.61,53.21,66.53,0.0,0.97977,53.998,35.77227,-78.67783,348.39,NaN,,,80.64516,,8 / 19,137921,2018-03-12 16:23:36:815
-2.5675,-9.2591,1.2358,-5.6874,-7.7061,2.1069,3.9591,-1.809,-2.3001,-0.3347,0.1655,-0.2725,0.0,18.6,33.75,19.5,297.92,50.74,68.31,0.0,0.97977,51.014,35.77227,-78.67783,348.39,NaN,,,80.64516,,8 / 19,138421,2018-03-12 16:23:37:315
-2.9986,-8.9717,-0.594,-4.5642,-8.6719,0.3693,-0.1891,0.031,0.1583,0.3455,-0.1849,-0.1489,0.0,16.35,28.65,27.15,268.9,61.8,90.28,0.0,0.97977,54.594,35.77227,-78.67783,348.39,NaN,,,80.64516,,8 / 19,138921,2018-03-12 16:23:37:815
-6.5288,-8.8712,2.0645,-5.1275,-7.972,2.5153,-4.3239,-0.6653,1.0329,0.419,-0.1317,0.5573,0.0,16.05,36.0,17.25,307.74,50.47,65.55,0.0,0.97977,53.067,35.77227,-78.67783,348.39,NaN,,,80.64516,,8 / 19,139421,2018-03-12 16:23:38:315
-3.9662,-8.8328,2.3184,-4.8355,-8.3914,1.5404,1.0212,-0.531,-1.5813,-1.4516,-0.5615,-0.2144,0.0,13.8,32.4,22.05,293.3,58.84,72.33,0.0,0.97979,54.657,35.77227,-78.67783,348.39,NaN,,,80.64516,,8 / 19,139921,2018-03-12 16:23:38:815
-6.7013,-4.7373,-1.0969,-4.5433,-8.4979,1.8204,1.8493,-5.6878,-5.4196,0.7582,-0.2744,0.7193,0.0,21.45,30.9,19.95,280.79,60.06,68.16,0.0,0.97979,51.768,35.77227,-78.67783,348.39,NaN,,,80.64516,,8 / 19,140421,2018-03-12 16:23:39:315
-1.1544,-11.1081,-1.7436,-5.2638,-7.7244,2.9658,-0.5089,-3.1973,-0.6723,-0.707,0.2678,-0.42,0.0,19.65,33.75,18.75,298.92,51.97,60.6,0.0,0.97978,48.378,35.77227,-78.67783,348.39,NaN,,,80.64516,,8 / 19,140921,2018-03-12 16:23:39:815
-3.5159,-7.9946,1.2358,-3.9589,-8.9676,0.2821,0.7175,0.86,1.3213,0.534,-0.3202,0.1451,0.0,18.9,28.65,26.7,262.27,66.13,85.92,0.0,0.97979,53.551,35.77227,-78.67783,348.39,NaN,,,80.64516,,8 / 19,141421,2018-03-12 16:23:40:315
-5.1972,-6.7396,2.1555,-5.1049,-7.8331,2.9587,-0.059,0.9466,-0.9779,0.0786,0.2438,-0.5596,0.0,24.3,34.8,16.35,292.81,53.01,59.9,0.0,0.97979,52.297,35.77227,-78.67783,348.39,NaN,,,80.64516,,8 / 19,141922,2018-03-12 16:23:40:816
-1.1065,-7.0749,2.4956,-4.8027,-8.3096,2.0136,3.9087,1.1329,0.4637,-0.7214,-0.0987,-0.2022,0.0,21.15,34.8,22.05,288.28,57.92,67.25,0.0,0.97977,51.559,35.77227,-78.67783,348.39,NaN,,,80.64516,,8 / 19,142422,2018-03-12 16:23:41:316
-3.1614,-9.307,-2.8884,-4.154,-8.8662,0.5526,-0.7306,-1.5256,1.0279,0.7167,0.4329,-0.0365,0.0,20.25,34.95,23.85,269.77,64.7,82.42,0.0,0.97979,52.406,35.77227,-78.67783,348.39,NaN,,,80.64516,,8 / 19,142921,2018-03-12 16:23:41:815
-6.342,-8.828,2.304,-5.1793,-7.9463,2.4902,0.5031,0.7641,-1.6118,0.4424,0.3141,-0.5186,0.0,19.35,36.6,16.65,300.32,54.13,64.32,0.0,0.97979,47.292,35.77227,-78.67783,348.39,NaN,,,80.64516,,8 / 19,143421,2018-03-12 16:23:42:315
-3.1375,-10.1357,0.0527,-4.7374,-8.4013,1.7734,2.4503,-1.0126,-1.0031,-0.2282,0.3738,0.0061,0.0,16.8,38.1,18.15,304.62,54.05,64.06,0.0,0.97978,47.813,35.77227,-78.67783,348.39,NaN,,,80.64516,,8 / 19,143922,2018-03-12 16:23:42:816
-4.7469,-10.9021,-0.9963,-4.2703,-8.8231,0.2957,1.0329,-0.2794,0.5876,0.045,-0.308,-0.1164,0.0,17.1,34.95,22.95,273.44,64.12,86.04,0.0,0.97978,50.283,35.77227,-78.67783,348.39,NaN,,,80.64516,,8 / 19,144422,2018-03-12 16:23:43:316
-5.3984,-7.5826,0.6227,-4.6704,-8.4301,1.8143,-1.1413,0.4566,-1.3903,-0.2421,-0.0891,0.0199,0.0,22.35,32.25,18.15,279.91,59.27,68.77,0.0,0.97979,50.903,35.77227,-78.67783,348.39,NaN,,,80.64516,,8 / 19,144921,2018-03-12 16:23:43:815
-4.9433,-8.6269,0.4838,-4.6147,-8.5959,0.9926,-0.3297,-0.0299,-0.5075,-0.1654,-0.3666,0.1297,0.0,22.8,29.55,19.5,266.29,61.39,77.61,0.0,0.97978,48.392,35.77227,-78.67783,348.39,NaN,,,80.64516,,8 / 19,145421,2018-03-12 16:23:44:315
-4.8379,-8.4065,0.6706,-4.7186,-8.5308,1.0633,-0.384,0.2126,-0.4543,0.0935,0.0457,0.0146,0.0,26.55,29.1,16.95,256.62,60.45,77.3,0.0,0.97978,47.609,35.77227,-78.67783,348.39,NaN,,,80.64516,,8 / 19,145921,2018-03-12 16:23:44:815
-4.8906,-8.5981,0.8095,-4.7816,-8.4671,1.2704,-0.1111,-0.0454,-0.5618,-0.0109,-0.0635,0.0029,0.0,25.65,29.85,16.65,263.11,59.7,75.12,0.0,0.97978,45.531,35.77227,-78.67783,348.39,NaN,,,80.64516,,8 / 19,146421,2018-03-12 16:23:45:315
-4.9337,-8.2484,0.7808,-4.8031,-8.4533,1.2818,-0.3296,0.0685,-0.4155,0.0195,0.0803,0.013,0.0,23.85,29.85,16.35,267.09,59.38,74.98,0.0,0.97977,49.131,35.77227,-78.67783,348.39,NaN,,,80.64516,,8 / 19,146921,2018-03-12 16:23:45:815
-5.4032,-8.67,0.479,-4.7784,-8.4661,1.2897,-0.3524,-0.3887,-0.5515,0.0088,0.0249,-0.0701,0.0,24.9,29.25,15.9,261.99,59.8,76.01,0.0,0.97978,53.494,35.77227,-78.67783,348.39,NaN,,,80.64516,,8 / 19,147421,2018-03-12 16:23:46:315
-5.4223,-7.5108,0.8766,-4.7802,-8.4772,1.2068,-0.6454,0.9652,-0.3289,-0.1361,-0.3187,0.004,0.0,25.8,29.7,16.05,261.22,59.87,75.89,0.0,0.97978,53.751,35.77227,-78.67783,348.39,NaN,,,80.64516,,8 / 19,147921,2018-03-12 16:23:46:815
-4.7709,-7.9706,1.6286,-4.839,-8.4587,1.0982,0.4819,0.7861,0.3369,-0.1696,-0.1269,-0.1185,0.0,27.15,28.05,15.75,256.44,59.8,76.24,0.0,0.97978,51.112,35.77227,-78.67783,348.39,NaN,,,80.64516,,8 / 19,148421,2018-03-12 16:23:47:315
-4.8044,-8.2868,0.8909,-4.8273,-8.45,1.2101,0.0577,0.1502,-0.3344,-0.004,-0.0188,-3.0E-4,0.0,28.2,28.65,15.75,256.96,59.54,75.5,0.0,0.97978,51.536,35.77227,-78.67783,348.39,NaN,,,80.64516,,8 / 19,148921,2018-03-12 16:23:47:815
-4.9385,-7.5826,1.2406,-4.6894,-8.5649,0.9069,-0.1143,1.0692,0.3494,0.6426,0.2092,0.037,0.0,26.25,27.75,17.1,254.89,60.85,79.05,0.0,0.97977,52.65,35.77227,-78.67783,348.39,NaN,,,80.64516,,8 / 19,149422,2018-03-12 16:23:48:316
-5.2259,-8.1383,2.0118,-5.2951,-7.9715,2.142,-0.1438,-0.2011,-0.098,0.0104,0.476,-0.2874,0.0,25.65,30.9,14.25,278.98,53.61,66.59,0.0,0.97977,52.881,35.77227,-78.67783,348.39,NaN,,,80.64516,,8 / 19,149921,2018-03-12 16:23:48:815
-4.0572,-8.3011,1.4226,-4.9576,-8.2922,1.6829,1.3376,-1.1053,-0.5226,-0.1723,0.0867,-0.4323,0.0,18.6,35.55,18.75,293.22,56.56,69.67,0.0,0.97977,47.751,35.77227,-78.67783,348.39,NaN,,,80.64516,,8 / 19,150421,2018-03-12 16:23:49:315
-3.8847,-9.0963,0.6179,-3.8575,-9.0158,-0.0662,0.0525,0.1729,1.3136,-0.3065,0.0196,-0.0386,0.0,11.25,37.05,26.7,286.63,64.37,84.82,0.0,0.97977,54.93,35.77227,-78.67783,348.39,NaN,,,80.64516,,8 / 19,150921,2018-03-12 16:23:49:815
-5.6618,-8.6317,-1.8873,-4.7456,-8.2721,2.2853,-0.4133,-2.0111,-2.7236,0.9968,0.2939,0.4935,0.0,9.9,41.1,19.5,297.26,65.6,80.32,0.0,0.97977,50.925,35.77227,-78.67783,348.39,NaN,,,80.64516,,8 / 19,151421,2018-03-12 16:23:50:315
-5.2834,-9.9777,3.056,-5.1658,-8.0657,2.1047,-0.706,-1.2275,-0.9822,0.4764,0.4451,0.2421,0.0,5.85,43.2,19.2,320.94,56.91,68.92,0.0,0.97977,48.415,35.77227,-78.67783,348.39,NaN,,,80.64516,,8 / 19,151921,2018-03-12 16:23:50:815
-2.3711,-8.2389,1.0346,-4.0454,-8.9314,-0.1903,0.5553,0.2504,1.5167,-0.2746,0.8345,-0.0072,0.0,-6.9,44.1,23.85,324.15,62.11,78.93,0.0,0.97977,48.83,35.77227,-78.67783,348.39,NaN,,,80.64516,,8 / 19,152421,2018-03-12 16:23:51:315
-4.0476,-6.6773,1.2742,-4.9492,-8.4296,0.7857,-1.6082,1.2761,-1.3389,0.738,0.1804,0.584,0.0,-6.75,46.35,18.3,321.02,64.88,98.78,0.0,0.97978,51.688,35.77227,-78.67783,348.39,NaN,,,80.64516,,8 / 19,152921,2018-03-12 16:23:51:815
-0.4982,-6.548,1.3364,-5.3489,-8.0518,1.6514,5.1246,-0.2142,-6.2916,-0.8578,1.3165,-0.4014,0.0,-7.5,47.4,7.8,350.54,56.79,74.99,0.0,0.97977,46.23,35.77227,-78.67783,348.39,NaN,,,80.64516,,8 / 19,153421,2018-03-12 16:23:52:315
-1.2167,-17.2537,-1.5616,-4.3031,-8.7702,-0.8594,-1.3896,0.1942,2.7212,0.2197,0.3578,-0.0349,0.0,-14.7,42.45,20.4,321.7,64.82,99.77,0.0,0.97977,52.942,35.77227,-78.67783,348.39,NaN,,,80.64516,,8 / 19,153921,2018-03-12 16:23:52:815
0.273,-12.6122,-3.9278,-5.0354,-8.3628,0.9368,-4.3462,-1.0524,3.1491,0.7524,-0.1738,0.0056,0.0,-15.3,47.55,7.5,352.5,58.51,79.46,0.0,0.97978,49.78,35.77227,-78.67783,348.39,NaN,,,80.64516,,8 / 19,154421,2018-03-12 16:23:53:315
-5.2547,-4.5505,0.5652,-3.9004,-8.9745,-0.645,0.1954,1.4077,2.4974,-0.3145,-0.6334,0.495,0.0,-21.6,45.15,18.9,328.13,66.15,98.58,0.0,0.97976,53.272,35.77227,-78.67783,348.39,NaN,,,80.64516,,8 / 19,154920,2018-03-12 16:23:53:814
-5.0535,-17.5507,-4.4931,-5.1819,-8.1092,1.8865,-2.2866,-1.1261,0.7023,0.5334,0.7045,-0.5335,0.0,-10.35,51.75,0.6,2.42,56.84,75.38,0.0,0.97975,51.393,35.77227,-78.67783,348.39,NaN,,,80.64516,,8 / 19,155421,2018-03-12 16:23:54:315
-4.723,-6.3133,4.0284,-4.1656,-8.8672,-0.4379,-4.2234,1.5129,2.53,-0.6197,0.026,0.4317,0.0,-13.5,47.85,17.25,329.74,64.72,96.0,0.0,0.97978,53.383,35.77227,-78.67783,348.39,NaN,,,80.64516,,8 / 19,155921,2018-03-12 16:23:54:815
-10.2411,-17.6848,2.5531,-4.74,-8.2415,2.4042,0.4125,2.6734,2.0514,1.0661,0.9549,0.2618,0.0,-11.85,52.05,2.25,4.68,54.32,64.98,0.0,0.97975,48.908,35.77227,-78.67783,348.39,NaN,,,80.64516,,8 / 19,156421,2018-03-12 16:23:55:315
-7.2042,-6.6917,6.6342,-4.0825,-8.9087,-0.3732,-3.5493,1.6178,1.7209,-0.4328,-1.2087,0.1973,0.0,-12.3,47.7,22.05,321.68,65.29,95.22,0.0,0.97977,55.31,35.77227,-78.67783,348.39,NaN,,,80.64516,,8 / 19,156922,2018-03-12 16:23:55:816
-8.0281,-7.9802,4.8475,-5.072,-8.0579,2.3485,-3.0076,0.4413,0.8934,-0.3704,0.9224,-0.8253,0.0,-12.45,53.55,1.8,4.57,55.25,65.15,0.0,0.97978,57.201,35.77227,-78.67783,348.39,NaN,,,80.64516,,8 / 19,157421,2018-03-12 16:23:56:315
-5.9732,-8.6269,1.8011,-4.0074,-8.9498,-0.1126,-0.5193,1.334,1.7191,-0.3603,-0.6862,0.07,0.0,-15.9,50.7,15.3,347.62,60.19,72.06,0.0,0.97978,53.373,35.77227,-78.67783,348.39,NaN,,,80.64516,,8 / 19,157921,2018-03-12 16:23:56:815
-8.8616,-5.8486,2.122,-4.9714,-8.2062,2.0282,-5.7743,2.413,6.2897,0.8003,-0.2878,-0.1803,0.0,-10.2,56.4,0.75,4.36,51.91,65.68,0.0,0.9798,56.22,35.77227,-78.67783,348.39,NaN,,,80.64516,,8 / 19,158421,2018-03-12 16:23:57:315
-5.9732,-6.8641,6.3612,-4.285,-8.8132,0.3694,4.1686,2.1241,2.2748,-1.5742,-1.3381,-0.0541,0.0,-16.95,55.65,8.4,358.78,51.84,68.0,0.0,0.9798,52.954,35.77227,-78.67783,348.39,NaN,,,80.64516,,8 / 19,158921,2018-03-12 16:23:57:815
-4.7182,-7.7982,-1.9639,-5.5088,-7.8488,2.0543,5.5195,6.4919,3.5538,1.3004,-0.3639,0.2415,0.0,-6.45,50.85,1.65,0.36,53.16,69.55,0.0,0.97981,54.45,35.77227,-78.67783,348.39,NaN,,,80.64516,,8 / 19,159421,2018-03-12 16:23:58:315
-3.1183,-8.4736,0.0527,-4.7087,-8.5213,1.1774,0.6817,0.6416,-1.3804,-1.9523,0.0787,-0.1303,0.0,-15.15,53.25,8.1,354.2,60.33,75.96,0.0,0.97983,53.144,35.77227,-78.67783,348.39,NaN,,,80.64516,,8 / 19,159921,2018-03-12 16:23:58:815
-1.5807,-6.2558,-2.2417,-5.3017,-7.9192,2.3128,-4.3434,-0.9772,1.4636,1.2855,0.0473,0.061,0.0,-9.6,54.3,4.8,357.79,55.55,71.29,0.0,0.97979,58.41,35.77227,-78.67783,348.39,NaN,,,80.64516,,8 / 19,160421,2018-03-12 16:23:59:315
-3.1279,-7.6353,1.0155,-3.8933,-9.0004,-0.0753,1.1351,-0.5808,1.8374,-1.3212,-0.7623,-0.2719,0.0,-16.8,54.3,14.25,352.08,62.09,66.65,0.0,0.97977,55.799,35.77227,-78.67783,348.39,NaN,,,80.64516,,8 / 19,160921,2018-03-12 16:23:59:815
-2.2322,-6.7492,-0.9867,-5.4191,-7.3254,3.6254,2.9752,0.7342,-5.3377,0.9537,0.5847,-0.0232,0.0,-9.0,53.85,3.45,4.45,56.31,53.69,0.0,0.97981,56.994,35.77227,-78.67783,348.39,NaN,,,80.64516,,8 / 19,161421,2018-03-12 16:24:00:315
-1.6669,-7.2856,1.1161,-4.5899,-8.6062,1.0178,2.4846,0.2684,-0.1417,-1.8511,-0.4332,-0.0924,0.0,-15.15,54.3,6.45,1.65,49.11,63.33,0.0,0.97982,53.508,35.77227,-78.67783,348.39,NaN,,,80.64516,,8 / 19,161921,2018-03-12 16:24:00:815
-2.1795,-1.7675,4.541,-5.9799,-6.7345,3.8804,4.4295,-0.6303,-4.1707,0.7715,-0.3778,0.8311,0.0,-10.05,53.85,5.85,1.36,51.79,54.09,0.0,0.97982,55.494,35.77227,-78.67783,348.39,NaN,,,80.64516,,8 / 19,162421,2018-03-12 16:24:01:315
-3.0896,-6.2462,1.4131,-6.136,-6.8862,3.3316,7.6552,-2.293,-7.7697,-1.3041,0.1863,-0.5601,0.0,-13.95,53.1,6.75,0.62,44.6,61.5,0.0,0.9798,51.927,35.77227,-78.67783,348.39,NaN,,,80.64516,,8 / 19,162921,2018-03-12 16:24:01:815
-6.7348,-13.4217,-8.6652,-5.0413,-8.257,1.6056,3.7105,-12.4802,-3.8577,-0.518,-0.3101,1.4762,0.0,-9.9,51.9,4.8,357.35,57.35,72.33,0.0,0.97981,57.176,35.77227,-78.67783,348.39,NaN,,,80.64516,,8 / 19,163421,2018-03-12 16:24:02:315
0.4455,-12.89,4.3637,-5.6653,-7.3975,3.0581,5.7443,-3.3973,0.9527,-0.9451,0.2007,-0.9612,0.0,-12.45,51.0,6.3,0.55,48.97,61.64,0.0,0.9798,52.515,35.77227,-78.67783,348.39,NaN,,,80.64516,,8 / 19,163921,2018-03-12 16:24:02:815
1.2119,-0.9867,5.3409,-5.0698,-8.1218,2.1223,0.9494,-21.6789,-0.2056,2.8456,-1.4612,-0.1063,0.0,-11.1,49.95,16.5,344.72,55.91,67.29,0.0,0.9798,52.332,35.77227,-78.67783,348.39,NaN,,,80.64516,,8 / 19,164420,2018-03-12 16:24:03:314
-1.6717,-7.5156,-1.8537,-6.109,-6.6231,3.871,5.9703,-8.0276,-6.2199,-0.7896,0.0723,-1.2674,0.0,-6.45,51.9,6.15,357.58,42.48,57.64,0.0,0.9798,51.794,35.77227,-78.67783,348.39,NaN,,,80.64516,,8 / 19,164920,2018-03-12 16:24:03:814
-9.1154,-7.3862,-9.6088,-5.1778,-8.1622,1.6552,4.3974,-2.3691,-3.5523,2.8605,-1.1581,-0.2533,0.0,-9.6,48.0,14.7,343.66,56.34,72.27,0.0,0.97976,52.936,35.77227,-78.67783,348.39,NaN,,,80.64516,,8 / 19,165421,2018-03-12 16:24:04:315
0.6419,-10.4567,4.2152,-6.1625,-6.5519,3.9072,5.0447,-8.4551,-7.4031,-0.9377,0.4302,-0.2405,0.0,-6.0,48.75,2.4,2.15,41.92,57.62,0.0,0.97979,48.631,35.77227,-78.67783,348.39,NaN,,,80.64516,,8 / 19,165921,2018-03-12 16:24:04:815
-4.2057,-21.2342,-4.7661,-5.0756,-8.2278,1.6467,0.7802,-0.9353,-1.6094,0.8631,-0.177,0.5877,0.0,-11.55,45.3,18.3,340.89,57.04,72.03,0.0,0.97978,54.42,35.77227,-78.67783,348.39,NaN,,,80.64516,,8 / 19,166421,2018-03-12 16:24:05:315
-0.0527,-9.6998,2.2465,-6.0313,-6.7667,3.7423,4.1529,-12.5478,-7.7337,-0.6938,0.2188,-0.1846,0.0,-8.55,51.9,6.15,359.12,47.34,59.83,0.0,0.97977,48.985,35.77227,-78.67783,348.39,NaN,,,80.64516,,8 / 19,166921,2018-03-12 16:24:05:815
-7.118,-7.1419,5.3888,-4.8258,-8.4127,1.4518,-0.7181,-0.5052,-2.0443,0.9382,0.4265,0.3795,0.0,-11.25,48.0,20.4,333.75,60.94,79.69,0.0,0.97979,54.324,35.77227,-78.67783,348.39,NaN,,,80.64516,,8 / 19,167421,2018-03-12 16:24:06:315
-6.5001,-9.7238,2.874,-5.6846,-7.1715,3.5251,7.6051,1.2028,-7.9354,-1.1795,1.2323,-0.7039,0.0,-7.8,49.05,8.55,355.72,46.08,56.91,0.0,0.97977,50.621,35.77227,-78.67783,348.39,NaN,,,80.64516,,8 / 19,167921,2018-03-12 16:24:06:815
-6.4713,-8.0664,-11.0075,-4.9292,-8.3888,1.2252,3.167,1.3571,-2.0463,1.2115,0.6784,0.4354,0.0,-14.4,45.9,24.45,331.63,63.22,77.27,0.0,0.97979,56.678,35.77227,-78.67783,348.39,NaN,,,80.64516,,8 / 19,168421,2018-03-12 16:24:07:315
0.364,-8.5838,4.0332,-6.2467,-6.7219,3.459,7.0469,-5.527,-6.0169,-0.9169,0.1383,-0.4296,0.0,-9.15,54.0,6.15,359.12,44.29,60.08,0.0,0.97978,53.116,35.77227,-78.67783,348.39,NaN,,,80.64516,,8 / 19,168921,2018-03-12 16:24:07:815
-2.9507,-15.6059,-9.8531,-4.9906,-8.3088,1.4924,4.6184,-5.6974,-4.7291,0.8242,0.7642,0.3566,0.0,-14.25,48.6,21.0,337.0,60.73,76.22,0.0,0.9798,52.951,35.77227,-78.67783,348.39,NaN,,,80.64516,,8 / 19,169421,2018-03-12 16:24:08:315
-3.3434,-10.9213,0.1581,-6.1994,-6.7759,3.4388,6.6287,-4.8183,-7.2186,-1.0842,0.2518,-1.2136,0.0,-7.2,50.4,4.65,358.67,43.71,60.98,0.0,0.97979,51.041,35.77227,-78.67783,348.39,NaN,,,80.64516,,8 / 19,169921,2018-03-12 16:24:08:815
-0.6275,-15.1892,-4.038,-4.2146,-8.8182,0.8043,-2.4618,0.0631,0.7002,2.0125,-0.6649,0.763,0.0,-15.15,45.3,16.35,340.09,64.05,79.2,0.0,0.9798,53.326,35.77227,-78.67783,348.39,NaN,,,80.64516,,8 / 19,170421,2018-03-12 16:24:09:315
0.0575,-10.0016,-2.9363,-5.6978,-7.1224,3.6024,4.6539,-7.1705,-7.3335,-0.9169,0.3013,-0.1483,0.0,-8.85,48.75,2.4,4.46,46.58,57.7,0.0,0.97981,53.279,35.77227,-78.67783,348.39,NaN,,,80.64516,,8 / 19,170921,2018-03-12 16:24:09:815
-2.2753,-8.3059,-0.206,-4.1113,-8.8662,0.8112,0.8894,1.0696,-0.69,1.1039,-0.1094,0.7023,0.0,-16.35,47.25,22.65,331.24,66.22,80.87,0.0,0.97981,50.57,35.77227,-78.67783,348.39,NaN,,,80.64516,,8 / 19,171421,2018-03-12 16:24:10:315
-1.2502,-11.5488,-3.7746,-5.5544,-7.2699,3.531,-1.3415,-13.5929,-5.2604,-1.0096,0.1511,-0.3039,0.0,-4.95,49.05,3.3,0.23,47.84,57.56,0.0,0.97982,52.247,35.77227,-78.67783,348.39,NaN,,,80.64516,,8 / 19,171921,2018-03-12 16:24:10:815
-5.9684,-9.8914,1.4514,-3.7551,-9.0471,0.4696,-2.3408,-0.7564,0.9088,0.2059,0.6283,8.0E-4,0.0,-15.6,42.3,18.6,335.98,66.24,78.62,0.0,0.97981,52.645,35.77227,-78.67783,348.39,NaN,,,80.64516,,8 / 19,172421,2018-03-12 16:24:11:315
-7.9994,-9.1202,3.5734,-5.4052,-7.5528,3.148,-2.0928,-1.3099,0.6461,0.7859,0.248,0.3198,0.0,-9.9,47.7,7.8,357.6,48.58,59.09,0.0,0.97981,51.941,35.77227,-78.67783,348.39,NaN,,,80.64516,,8 / 19,172921,2018-03-12 16:24:11:815
-3.0513,-8.3059,2.7878,-4.0597,-8.9121,0.5129,-1.6627,0.9,0.2188,-0.8077,-0.2676,0.3987,0.0,-16.35,45.75,22.95,341.68,61.45,65.48,0.0,0.97981,53.789,35.77227,-78.67783,348.39,NaN,,,80.64516,,8 / 19,173420,2018-03-12 16:24:12:314
-9.4268,-15.0503,3.2764,-5.3354,-7.5752,3.2125,-3.3372,1.4272,-0.396,-0.2389,0.9852,-0.82,0.0,-4.8,51.75,5.1,356.95,53.01,61.07,0.0,0.9798,54.028,35.77227,-78.67783,348.39,NaN,,,80.64516,,8 / 19,173921,2018-03-12 16:24:12:815
-5.1828,-9.3597,-1.2119,-3.9812,-8.9279,0.7826,1.4544,-0.0759,-0.0495,-1.5199,-0.2761,-0.4402,0.0,-14.1,46.65,17.85,348.44,56.11,60.92,0.0,0.9798,54.764,35.77227,-78.67783,348.39,NaN,,,80.64516,,8 / 19,174421,2018-03-12 16:24:13:315
-6.5001,-5.6427,2.419,-5.4891,-7.4436,3.2607,3.8745,-0.4628,-3.4534,0.5068,-0.0023,0.0605,0.0,-6.75,51.6,10.2,353.23,49.38,59.29,0.0,0.97978,53.789,35.77227,-78.67783,348.39,NaN,,,80.64516,,8 / 19,174921,2018-03-12 16:24:13:815
-2.8549,-10.1261,0.5269,-4.0849,-8.7503,1.7078,1.5926,0.0795,-0.7002,0.1734,-1.7206,-0.1265,0.0,-15.15,46.95,22.05,340.57,63.16,67.31,0.0,0.97977,51.286,35.77227,-78.67783,348.39,NaN,,,80.64516,,8 / 19,175421,2018-03-12 16:24:14:315
-3.0081,-8.7801,-2.2178,-5.0894,-7.8518,2.9357,2.7519,6.1343,1.0506,-0.4045,0.7785,-0.6298,0.0,-3.45,47.85,6.75,352.27,53.19,60.02,0.0,0.97975,53.343,35.77227,-78.67783,348.39,NaN,,,80.64516,,8 / 19,175920,2018-03-12 16:24:14:814
-3.0944,-8.852,0.8814,-3.7885,-8.9919,0.982,-1.4624,1.3481,1.6857,-0.6986,-0.3613,0.086,0.0,-12.45,43.65,21.75,331.21,66.48,75.47,0.0,0.97975,51.273,35.77227,-78.67783,348.39,NaN,,,80.64516,,8 / 19,176421,2018-03-12 16:24:15:315
-2.5483,-2.1316,3.3818,-5.1574,-7.8976,2.683,2.5255,5.7975,0.79,-0.0045,1.0017,-0.7955,0.0,-3.45,47.85,7.05,351.73,53.64,62.52,0.0,0.97974,51.229,35.77227,-78.67783,348.39,NaN,,,80.64516,,0 / 19,176921,2018-03-12 16:24:15:815
-2.3806,-7.5156,0.1437,-3.8693,-8.8687,1.5951,0.2921,1.3044,-0.0982,-1.3457,-0.2058,-0.061,0.0,-12.15,48.6,15.3,345.57,64.74,67.6,0.0,0.97974,50.063,35.77227,-78.67783,348.39,NaN,,,80.64516,,0 / 19,177421,2018-03-12 16:24:16:315
-8.5119,-4.7182,-7.1851,-4.7472,-8.1031,2.8239,2.1356,5.4252,0.7415,0.9169,-0.5371,0.4796,0.0,-4.2,47.25,5.85,354.42,55.72,59.25,0.0,0.97973,52.367,35.77227,-78.67783,348.39,NaN,,,80.64516,,0 / 19,177921,2018-03-12 16:24:16:815
-3.2189,-9.1442,-1.4945,-3.8164,-8.8484,1.8195,1.4585,1.5027,-1.4428,-1.3984,-0.1429,-0.1691,0.0,-11.85,45.15,13.2,349.13,64.46,64.51,0.0,0.97971,49.618,35.77227,-78.67783,348.39,NaN,,,80.64516,,0 / 19,178421,2018-03-12 16:24:17:315
-1.0011,-3.8033,2.1268,-4.1887,-8.5046,2.5095,-2.8955,5.2815,-6.4215,1.3175,0.6155,0.8839,0.0,-4.95,48.45,10.2,349.39,60.14,59.07,0.0,0.9797,52.517,35.77227,-78.67783,348.39,NaN,,,80.64516,,0 / 19,178921,2018-03-12 16:24:17:815
-2.1507,-7.8652,-0.3161,-4.6827,-8.2838,2.3709,3.8699,0.3261,-0.6628,-1.2264,0.3844,-1.4538,0.0,-10.35,51.45,10.35,353.5,57.64,63.15,0.0,0.97969,52.119,35.77227,-78.67783,348.39,NaN,,,80.64516,,0 / 19,179421,2018-03-12 16:24:18:315
-6.2845,-5.8055,-9.4843,-3.7873,-8.9,1.6175,3.4154,-18.0445,-3.1959,1.9209,0.3673,0.0338,0.0,-10.05,51.45,10.8,349.59,65.17,66.87,0.0,0.9797,51.626,35.77227,-78.67783,348.39,NaN,,,80.64516,,0 / 19,179921,2018-03-12 16:24:18:815
-2.6537,-9.446,1.7915,-4.4831,-8.4336,2.2241,2.5802,-0.4955,-0.3136,-0.7188,0.2331,-0.8253,0.0,-7.2,48.3,3.9,0.9,55.07,56.44,0.0,0.97969,52.559,35.77227,-78.67783,348.39,NaN,,,80.64516,,0 / 19,180421,2018-03-12 16:24:19:315
-1.3795,-8.4784,-1.9208,-3.6766,-9.0913,0.0321,0.5913,1.6336,-1.2262,1.3388,-0.0108,0.5164,0.0,-14.55,46.5,21.75,320.27,71.13,94.37,0.0,0.97969,51.922,35.77227,-78.67783,348.39,NaN,,,80.64516,,2 / 19,180921,2018-03-12 16:24:19:815
-2.8022,-11.726,-0.9053,-5.0547,-7.8569,2.9814,1.4674,-4.2944,-3.4761,-0.5169,0.0105,-0.0125,0.0,-5.4,54.3,7.35,354.36,54.71,61.06,0.0,0.9797,50.46,35.77227,-78.67783,348.39,NaN,,,80.64516,,2 / 19,181421,2018-03-12 16:24:20:315
-5.3122,-8.8759,4.038,-3.8104,-9.0355,0.1055,-1.2853,3.4152,1.5398,0.1435,0.4142,0.1899,0.0,-6.75,45.6,22.05,317.71,68.64,88.17,0.0,0.97971,52.354,35.77227,-78.67783,348.39,NaN,,,80.64516,,4 / 19,181921,2018-03-12 16:24:20:815
-8.2245,-9.7717,4.2583,-4.9213,-8.0851,2.5656,-1.8606,-2.0405,0.4998,0.7273,0.0808,0.1057,0.0,-0.3,44.7,4.2,352.65,54.21,63.5,0.0,0.97971,48.659,35.77227,-78.67783,348.39,NaN,,,80.64516,,4 / 19,182422,2018-03-12 16:24:21:316
-6.6965,-9.5801,0.7281,-3.124,-9.2843,-0.4607,-0.2572,-0.1634,2.5291,-0.4157,-0.6724,0.0807,0.0,-8.7,43.35,14.1,334.31,69.76,80.09,0.0,0.9797,51.449,35.77227,-78.67783,348.39,NaN,,,80.64516,,6 / 19,182921,2018-03-12 16:24:21:815
-9.0436,-10.3034,3.923,-4.8307,-8.2469,2.1964,0.506,1.5253,-1.2573,0.1664,0.8898,-0.8685,0.0,-1.5,45.9,1.95,356.94,57.24,65.55,0.0,0.97969,50.822,35.77227,-78.67783,348.39,NaN,,,80.64516,,6 / 19,183421,2018-03-12 16:24:22:315
-3.9566,-7.7168,2.9602,-3.0796,-9.3105,-0.0374,0.9646,0.2479,1.5897,-0.8195,-1.2561,-0.1462,0.0,-13.05,47.4,12.6,333.98,71.7,90.7,0.0,0.9797,51.753,35.77227,-78.67783,348.39,NaN,,,80.64516,,7 / 19,183921,2018-03-12 16:24:22:815
-5.2738,-5.9971,2.1795,-5.1316,-8.0091,2.3856,2.1293,0.0144,-2.4682,0.0098,0.4845,-0.7742,0.0,0.6,45.9,-4.05,7.48,54.76,65.07,0.0,0.97968,51.484,35.77227,-78.67783,348.39,NaN,,,80.64516,,7 / 19,184421,2018-03-12 16:24:23:315
-2.0166,-9.1394,0.2635,-3.4745,-9.1156,1.002,-1.6492,1.4054,0.366,-0.9936,-0.0977,-0.2,0.0,-15.15,45.9,-3.75,15.26,68.36,73.91,0.0,0.97967,50.279,35.77227,-78.67783,348.39,NaN,,,80.64516,,7 / 19,184921,2018-03-12 16:24:23:815
-7.6018,-4.0907,3.2429,-4.2023,-8.7004,1.6773,-3.9422,4.2679,-6.9597,0.9563,0.2507,1.3585,0.0,-21.0,48.0,-3.75,16.78,62.52,68.24,0.0,0.97967,53.176,35.77227,-78.67783,348.39,NaN,,,80.64516,,7 / 19,185421,2018-03-12 16:24:24:315
-1.5951,-7.4916,3.3626,-5.4209,-7.8163,2.3854,4.3301,-1.4708,-3.7119,-0.5643,0.6438,-1.1151,0.0,-19.65,49.05,-11.1,24.03,52.85,66.25,0.0,0.97967,50.216,35.77227,-78.67783,348.39,NaN,,,80.64516,,7 / 19,185921,2018-03-12 16:24:24:815
-2.2992,-10.107,1.4897,-4.3558,-8.7514,-0.7812,-1.9056,0.5133,3.7133,2.0813,0.3716,0.5025,0.0,-21.75,50.55,-13.95,12.53,63.18,100.17,0.0,0.97964,53.63,35.77227,-78.67783,348.39,NaN,,,80.64516,,7 / 19,186421,2018-03-12 16:24:25:315
-4.8954,-8.0712,3.2237,-5.7714,-7.8576,1.058,-0.2721,1.1369,1.1645,0.7087,0.7412,0.395,0.0,-13.05,34.05,-44.85,62.67,53.25,79.61,0.0,0.97961,48.79,35.77227,-78.67783,348.39,NaN,,,80.64516,,8 / 19,186921,2018-03-12 16:24:25:815
-3.1375,-9.4891,1.1209,-4.7674,-8.5461,-0.6382,1.7261,-1.092,1.8123,-0.0583,-0.1323,-0.2368,0.0,24.6,29.25,-31.05,96.35,60.63,97.62,0.0,0.97963,51.963,35.77227,-78.67783,348.39,NaN,,,80.64516,,8 / 19,187421,2018-03-12 16:24:26:315
-2.9363,-5.1014,2.5244,-5.567,-7.9796,1.2264,3.413,2.757,1.3563,1.0559,0.1463,-0.11,0.0,-27.75,32.85,-0.3,8.27,54.46,77.58,0.0,0.97962,51.523,35.773117,-78.67888,322.58,NaN,,3.2,148.3871,4.0,8 / 19,187921,2018-03-12 16:24:26:815
1.3747,-5.4894,-1.552,-5.731,-7.7787,1.6787,6.2059,-0.7503,-3.0129,-0.0706,0.2475,-0.9771,0.0,-25.05,11.55,-31.65,63.03,52.49,73.67,0.0,0.97963,50.348,35.773117,-78.67888,322.58,NaN,,3.2,148.3871,4.0,8 / 19,188421,2018-03-12 16:24:27:315
-2.8644,-12.1475,1.0346,-4.7646,-8.4643,1.3506,2.7518,-4.229,-1.0013,0.184,-0.3405,0.4392,0.0,-9.15,17.7,-15.45,52.34,59.67,74.17,0.0,0.97962,50.609,35.773117,-78.67888,322.58,NaN,,3.2,148.3871,4.0,8 / 19,188921,2018-03-12 16:24:27:815
-3.2285,-6.8641,1.0346,-4.8709,-8.5071,0.2703,0.3443,-0.9241,0.1146,-0.469,-0.1371,-0.028,0.0,-3.15,19.2,1.8,351.43,60.17,86.82,0.0,0.97961,53.735,35.773117,-78.67888,322.58,319.33133742764085,,3.2,148.3871,4.0,8 / 19,189420,2018-03-12 16:24:28:314
-5.748,-6.7731,1.5041,-4.0818,-8.8968,-0.5977,-1.2925,1.9432,2.2994,-0.2746,-0.2591,0.1175,0.0,-6.6,16.8,14.1,312.26,63.76,93.28,0.0,0.97958,54.812,35.773117,-78.67888,322.58,319.33133742764085,,3.2,148.3871,4.0,8 / 19,189921,2018-03-12 16:24:28:815
-4.7182,-8.2437,0.958,-5.3211,-8.1198,1.3874,0.2037,1.2834,-0.9348,0.3987,0.8057,-0.1547,0.0,-24.0,19.2,0.6,9.6,55.89,75.39,0.0,0.9796,53.366,35.773117,-78.67888,322.58,319.33133742764085,,3.2,148.3871,4.0,8 / 19,190421,2018-03-12 16:24:29:315
-7.2856,-6.7731,2.213,-5.1215,-8.2466,1.3908,-1.7463,-2.1517,0.554,0.641,0.6027,-0.0072,0.0,-24.15,7.2,0.0,16.12,55.94,73.9,0.0,0.97959,50.334,35.773117,-78.67888,322.58,319.33133742764085,,3.2,148.3871,4.0,8 / 19,190921,2018-03-12 16:24:29:815
-4.5314,-8.7275,0.9149,-4.3632,-8.7825,-0.0064,-0.3036,-0.1041,0.8435,0.0578,-0.2031,-0.2868,0.0,-23.85,12.15,-8.25,22.43,61.72,83.46,0.0,0.97965,51.294,35.773117,-78.67888,322.58,319.33133742764085,,3.2,148.3871,4.0,8 / 19,191420,2018-03-12 16:24:30:314
-4.3062,-8.7179,1.1879,-3.6057,-9.11,0.4221,-0.369,0.8301,0.5387,-0.0152,0.191,-0.0114,0.0,-22.8,14.25,-6.15,20.51,67.19,80.96,0.0,0.9796,52.004,35.773117,-78.67888,322.58,319.33133742764085,,3.2,148.3871,4.0,8 / 19,191921,2018-03-12 16:24:30:815
-3.9518,-9.0819,0.7377,-3.6919,-9.0822,0.2338,-0.6018,0.2292,0.5023,0.3976,1.7261,-0.2229,0.0,-9.6,21.15,-5.25,20.48,67.56,82.86,0.0,0.97959,54.031,35.773117,-78.67888,322.58,319.33133742764085,,3.2,148.3871,4.0,8 / 19,192421,2018-03-12 16:24:31:315
-3.9183,-8.8616,0.6131,-3.4204,-9.1907,-0.0516,-1.1351,0.2946,0.2343,-0.0397,0.077,0.045,0.0,-12.15,30.45,-2.25,4.78,69.58,90.87,0.0,0.97961,52.745,35.773117,-78.67888,322.58,319.33133742764085,,3.2,148.3871,4.0,8 / 19,192921,2018-03-12 16:24:31:815
-3.195,-9.24,0.273,-3.9685,-8.9651,-0.2216,0.0023,0.0323,0.2263,0.0919,-0.054,0.6059,0.0,-8.7,27.6,-3.45,7.21,66.09,93.2,0.0,0.97963,52.349,35.773117,-78.67888,322.58,319.33133742764085,,3.2,148.3871,4.0,8 / 19,193421,2018-03-12 16:24:32:315
-5.8103,-8.9286,0.3593,-4.1727,-8.874,-0.1048,-2.0912,-1.0075,1.1272,0.2,0.6965,-0.5712,0.0,-5.4,36.15,-12.3,30.16,59.47,83.83,0.0,0.97962,55.262,35.773117,-78.67888,322.58,319.33133742764085,,3.2,148.3871,4.0,8 / 19,193921,2018-03-12 16:24:32:815
-3.5207,-9.3549,0.8478,-3.2411,-9.2556,-4.0E-4,-0.1648,-0.1368,0.4381,-0.2149,-1.3121,-0.511,0.0,2.55,29.4,-7.5,45.07,69.58,97.42,0.0,0.97959,61.651,35.773117,-78.67888,322.58,319.33133742764085,,3.2,148.3871,4.0,8 / 19,194421,2018-03-12 16:24:33:315
0.3209,-11.8027,1.2358,-1.5718,-9.6785,0.1629,2.6021,0.2525,0.0563,-0.1675,-1.7259,0.0189,0.0,-3.45,36.0,-12.0,55.09,78.29,82.03,0.0,0.97957,53.739,35.773117,-78.67888,322.58,319.33133742764085,,3.2,148.3871,4.0,8 / 19,194921,2018-03-12 16:24:33:815
-2.2561,-9.2591,-1.1831,-2.3014,-9.4577,-1.1941,0.5979,0.4352,0.4705,-0.0642,-0.1211,0.0152,0.0,-16.95,21.3,-4.65,349.24,76.06,119.9,0.0,0.97957,51.96,35.773117,-78.67888,322.58,319.33133742764085,,3.2,148.3871,4.0,8 / 19,195421,2018-03-12 16:24:34:315
-2.5148,-9.4076,-0.6131,-2.5241,-9.4047,-1.1621,-0.4808,-0.0452,0.521,-0.0269,-0.0604,0.0764,0.0,-13.5,17.55,-3.45,349.78,73.52,115.53,0.0,0.97958,56.394,35.773117,-78.67888,322.58,319.33133742764085,,3.2,148.3871,4.0,8 / 19,195921,2018-03-12 16:24:34:815
-3.2524,-9.6423,0.1006,-3.2212,-9.26,-0.2146,0.2269,-0.3219,0.2435,0.2703,0.0222,0.0956,0.0,-15.9,22.05,-5.1,4.37,71.65,101.41,0.0,0.97959,51.606,35.773117,-78.67888,322.58,319.33133742764085,,3.2,148.3871,4.0,8 / 19,196421,2018-03-12 16:24:35:315
-4.6703,-7.961,0.9005,-3.8691,-8.9911,0.5999,-0.9088,1.0567,0.1769,0.176,-0.8695,0.1968,0.0,-25.5,15.3,-1.65,6.63,67.77,86.82,0.0,0.9796,51.324,35.773117,-78.67888,322.58,319.33133742764085,,3.2,148.3871,4.0,8 / 19,196921,2018-03-12 16:24:35:815
-2.2753,-9.0532,1.1017,-2.9948,-9.33,0.3907,0.2468,0.1336,0.7634,-0.3177,-0.6926,0.3044,0.0,-28.5,4.2,1.35,10.35,73.36,77.69,0.0,0.97959,50.393,35.773117,-78.67888,322.58,319.33133742764085,,3.2,148.3871,4.0,8 / 19,197421,2018-03-12 16:24:36:315
-3.7171,-8.8041,2.1172,-3.6849,-9.0726,0.5296,-2.9559,-0.4031,-1.0135,-0.5841,-0.1856,0.4104,0.0,-30.6,8.4,-1.05,8.55,69.83,83.05,0.0,0.97959,49.353,35.773117,-78.67888,322.58,319.33133742764085,,3.2,148.3871,4.0,8 / 19,197921,2018-03-12 16:24:36:815
-3.5255,-8.943,1.8346,-4.0928,-8.8843,0.6991,-1.2535,-3.1625,1.4241,-0.2773,0.1282,0.183,0.0,-27.6,3.3,2.4,6.08,64.85,80.13,0.0,0.97962,60.283,35.773117,-78.67888,322.58,319.33133742764085,,3.2,148.3871,4.0,8 / 19,198421,2018-03-12 16:24:37:315
-4.1051,-8.8472,1.5137,-4.9752,-8.4484,0.2041,0.786,-0.3605,0.5236,-0.5356,-0.168,0.1649,0.0,-26.4,2.1,12.0,342.6,59.76,80.99,0.0,0.97962,57.519,35.773117,-78.67888,322.58,319.33133742764085,,3.2,148.3871,4.0,8 / 19,198921,2018-03-12 16:24:37:815
-6.7061,-12.3918,3.7506,-2.2566,-9.2704,2.2668,-1.2259,0.2707,0.6202,0.7539,1.856,-2.086,0.0,-28.65,5.85,8.1,3.74,56.87,71.04,0.0,0.97961,56.135,35.773117,-78.67888,322.58,319.33133742764085,,3.2,148.3871,4.0,8 / 19,199420,2018-03-12 16:24:38:314
-7.8413,-8.6891,4.6751,-5.9135,1.0953,7.746,-2.7612,-4.5469,-0.6743,2.1649,-5.7814,2.983,7.8925,-2.55,25.65,41.1,308.94,45.68,69.88,2.0,0.97962,47.608,35.773117,-78.67888,322.58,319.33133742764085,,3.2,148.3871,4.0,8 / 19,199921,2018-03-12 16:24:38:815
1.9208,6.8306,10.4902,-0.336,5.3695,8.1992,2.6504,1.3581,1.4413,1.2866,-0.6085,-0.9318,1.5205,-22.35,119.25,60.75,16.52,-33.2,2.35,2.0,0.97961,51.607,35.773117,-78.67888,322.58,319.33133742764085,,3.2,148.3871,4.0,8 / 19,200421,2018-03-12 16:24:39:315
-0.8862,-0.0287,9.4268,-1.6402,1.1811,9.5961,0.0127,-0.048,1.2714,0.2596,0.8504,-0.8711,29.5715,-63.45,7.35,-7.2,83.99,-8.11,8.03,2.0,0.97958,46.53,35.773117,-78.67888,322.58,319.33133742764085,,3.2,148.3871,4.0,8 / 19,200921,2018-03-12 16:24:39:815
-2.1268,-1.3747,11.4769,-2.8478,-0.7196,9.3564,-0.4764,-0.469,3.6978,1.3542,0.745,-0.7071,55.3105,-46.2,-1.5,-24.9,91.26,0.5,13.67,2.0,0.97958,58.121,35.773117,-78.67888,322.58,319.33133742764085,,3.2,148.3871,4.0,8 / 19,201421,2018-03-12 16:24:40:315
-4.6368,3.7698,8.4784,-3.1159,2.473,8.9636,-1.1804,1.2784,-0.1959,-0.0567,-0.0103,1.1294,47.0512,-54.3,1.2,-19.2,89.09,-7.53,19.99,2.0,0.97961,58.491,35.773117,-78.67888,322.58,319.33133742764085,,3.2,148.3871,4.0,8 / 19,201921,2018-03-12 16:24:40:815
0.1581,5.9349,6.7492,-0.957,6.0711,7.6417,1.2487,-0.357,-0.6652,0.4775,0.3173,0.1978,3.5261,-69.9,39.75,-0.9,67.54,-30.67,10.26,2.0,0.97968,65.561,35.773117,-78.67888,322.58,319.33133742764085,,3.2,148.3871,4.0,8 / 19,202421,2018-03-12 16:24:41:315
-0.0862,6.1552,8.1766,-0.4701,5.9173,7.8061,0.0768,0.3325,0.6698,0.3289,0.3008,0.0162,1.4787,-72.6,49.95,6.3,65.13,-37.11,3.45,2.0,0.97958,52.631,35.773117,-78.67888,322.58,319.33133742764085,,3.2,148.3871,4.0,8 / 19,202920,2018-03-12 16:24:41:814
0.388,5.6954,8.4927,-0.3114,5.6259,8.0264,0.6345,0.2633,0.2618,-0.1025,-0.0544,-0.2938,7.1497,-70.05,42.3,10.35,68.71,-35.01,2.22,2.0,0.97956,51.09,35.773117,-78.67888,322.58,319.33133742764085,,3.2,148.3871,4.0,8 / 19,203421,2018-03-12 16:24:42:315
-1.1304,5.6762,8.4113,-0.6109,5.4716,8.1153,-0.4862,0.2185,0.3082,0.1361,0.0207,-0.0743,9.153,-74.7,37.35,7.05,72.32,-33.91,4.31,2.0,0.97956,57.132,35.773117,-78.67888,322.58,319.33133742764085,,3.2,148.3871,4.0,8 / 19,203921,2018-03-12 16:24:42:815
-0.1389,6.1408,7.415,-0.5584,5.9964,7.7397,-0.0956,0.3438,-0.468,0.2341,0.0478,0.1781,3.3195,-71.85,44.4,-5.1,64.96,-37.53,5.52,2.0,0.97955,59.216,35.773117,-78.67888,322.58,319.33133742764085,,3.2,148.3871,4.0,8 / 19,204421,2018-03-12 16:24:43:315
-0.8766,4.7326,8.6987,-1.5936,5.0928,8.2277,-0.277,0.441,-0.4029,0.2102,-0.4965,-1.5993,3.0317,-60.9,21.9,-3.3,72.26,-29.16,2.19,2.0,0.97956,53.175,35.773117,-78.67888,322.58,319.33133742764085,,3.2,148.3871,4.0,8 / 19,204921,2018-03-12 16:24:43:815
-10.8111,7.5347,3.2668,-0.6829,4.8318,8.5064,-2.1639,-1.484,3.252,0.2111,1.1819,0.2899,0.9587,-38.1,-26.55,-19.65,111.02,-29.52,4.59,2.0,0.97955,58.705,35.773117,-78.67888,322.58,319.33133742764085,,3.2,148.3871,4.0,8 / 19,205420,2018-03-12 16:24:44:314
-2.1364,4.426,7.1851,-0.5321,4.9978,8.4208,-2.9544,0.2027,-0.3523,-0.6124,0.2823,0.8396,0.4921,-36.15,-13.05,-23.4,90.99,-30.64,3.62,2.0,0.97958,52.955,35.773117,-78.67888,322.58,319.33133742764085,,3.2,148.3871,4.0,8 / 19,205920,2018-03-12 16:24:44:814
-2.4765,4.5314,9.7046,-1.1463,3.7182,9.0017,-0.492,0.3883,-0.2177,-0.2214,0.3148,-1.2462,0.4921,-32.55,-7.5,-23.7,89.93,-22.28,7.26,2.0,0.97958,52.114,35.773117,-78.67888,322.58,319.33133742764085,,3.2,148.3871,4.0,8 / 19,206420,2018-03-12 16:24:45:314
2.0453,0.3497,11.065,-0.5827,3.3724,9.1901,4.3833,-4.1047,1.8379,-0.5985,-1.5291,-0.6736,0.4921,-31.95,-18.0,-20.55,107.35,-20.11,3.63,2.0,0.97958,48.141,35.773117,-78.67888,322.58,319.33133742764085,,3.2,148.3871,4.0,8 / 19,206921,2018-03-12 16:24:45:815
3.8656,1.2502,7.2809,0.7443,3.5381,9.1158,2.2493,-2.563,-0.8095,0.0412,0.9002,0.9818,0.6244,-42.15,-11.85,-20.85,93.43,-21.15,-4.67,2.0,0.97958,46.022,35.773117,-78.67888,322.58,319.33133742764085,,3.2,148.3871,4.0,8 / 19,207421,2018-03-12 16:24:46:315
-0.1964,2.6249,9.7861,0.4175,2.5921,9.4487,-0.0665,0.0952,0.4963,0.2942,0.2605,0.1232,0.4341,-42.6,-6.3,-21.0,89.65,-15.33,-2.53,2.0,0.97959,45.875,35.773117,-78.67888,322.58,319.33133742764085,,3.2,148.3871,4.0,8 / 19,207921,2018-03-12 16:24:46:815
0.273,4.3015,4.4068,-1.0591,4.4725,8.6629,-0.778,-1.5846,1.5287,1.9837,1.2107,2.1216,0.1323,-44.55,-5.7,-22.8,86.89,-27.13,6.97,2.0,0.97959,45.751,35.773117,-78.67888,322.58,319.33133742764085,,3.2,148.3871,4.0,8 / 19,208421,2018-03-12 16:24:47:315
2.0022,6.2031,7.6497,1.0045,6.0828,7.6263,4.4655,-1.2523,1.0408,-1.2467,-2.1613,-1.0268,0.1323,-58.35,5.25,-14.1,72.8,-38.34,-7.5,2.0,0.97961,48.988,35.773117,-78.67888,322.58,319.33133742764085,,3.2,148.3871,4.0,8 / 19,208920,2018-03-12 16:24:47:814
4.3637,6.0738,8.5885,2.1483,6.8129,6.7186,0.0736,-1.1704,0.4855,0.462,0.325,0.3464,0.4921,-54.75,17.1,-21.0,53.77,-44.4,-13.68,2.0,0.97961,44.557,35.773117,-78.67888,322.58,319.33133742764085,,3.2,148.3871,4.0,8 / 19,209421,2018-03-12 16:24:48:315
1.6526,7.1228,9.0436,2.4748,5.9712,7.375,1.3091,-0.6082,1.0551,0.1141,-0.0617,-0.6177,0.4921,-54.15,24.15,-16.2,49.87,-37.56,-18.67,2.0,0.9796,49.298,35.773117,-78.67888,322.58,319.33133742764085,,3.2,148.3871,4.0,8 / 19,209921,2018-03-12 16:24:48:815
0.661,7.4533,6.6007,1.4706,7.0453,6.6612,0.3291,0.2735,0.571,0.4156,0.2552,-0.0078,0.4921,-52.95,16.65,-19.95,54.33,-42.66,-13.05,2.0,0.97958,45.749,35.773117,-78.67888,322.58,319.33133742764085,,3.2,148.3871,4.0,8 / 19,210421,2018-03-12 16:24:49:315
-4.3829,9.9681,3.8416,0.433,7.6135,6.1658,-0.5051,0.0371,0.0959,0.209,0.5167,-0.2656,0.1323,-52.05,5.7,-22.65,57.91,-51.11,-11.19,2.0,0.97956,49.676,35.773117,-78.67888,322.58,319.33133742764085,,3.2,148.3871,4.0,8 / 19,210921,2018-03-12 16:24:49:815
-1.6957,7.1132,5.4559,-2.5164,7.8952,5.2444,-0.7885,-0.3638,1.4319,0.4497,0.4534,-0.9788,0.6244,-43.65,-10.35,-29.55,81.45,-56.0,16.85,2.0,0.97956,44.339,35.773117,-78.67888,322.58,319.33133742764085,,3.2,148.3871,4.0,8 / 19,211421,2018-03-12 16:24:50:315
-5.087,6.342,7.2377,-4.2003,5.3577,7.0585,0.1399,-0.071,3.623,0.1488,-1.3405,-1.8007,0.4921,-26.55,-20.25,-23.7,106.15,-40.75,29.59,2.0,0.97958,44.251,35.773117,-78.67888,322.58,319.33133742764085,,3.2,148.3871,4.0,8 / 19,211921,2018-03-12 16:24:50:815
0.0814,2.6489,10.1118,-1.881,4.3578,8.5815,-0.9982,2.6514,-1.523,-0.786,-0.663,0.5914,0.4921,-24.6,-25.65,-20.55,118.68,-30.71,20.79,2.0,0.97958,44.845,35.773117,-78.67888,322.58,319.33133742764085,,3.2,148.3871,4.0,8 / 19,212420,2018-03-12 16:24:51:314
9.8627,0.5556,12.7846,0.3717,4.1283,8.8876,-0.5797,0.2242,-1.2638,1.1294,-0.3951,-1.6686,0.6244,-33.15,-24.75,-13.95,116.59,-24.9,-2.39,2.0,0.97958,45.725,35.773117,-78.67888,322.58,319.33133742764085,,3.2,148.3871,4.0,8 / 19,212921,2018-03-12 16:24:51:815
-0.6227,6.1792,12.8756,2.3216,4.4672,8.4158,1.8894,-0.7319,0.133,-0.8915,0.0225,2.2377,0.4341,-32.7,-31.2,-7.95,120.81,-36.97,-1.08,2.0,0.97957,49.062,35.773117,-78.67888,322.58,319.33133742764085,,3.2,148.3871,4.0,8 / 19,213421,2018-03-12 16:24:52:315
3.5063,4.7757,10.2555,1.1346,5.7568,7.8576,0.893,0.5308,0.9811,0.4396,1.3541,0.1344,0.9262,-46.8,-19.05,-9.15,97.54,-29.32,-17.07,2.0,0.97956,45.588,35.773117,-78.67888,322.58,319.33133742764085,,3.2,148.3871,4.0,8 / 19,213921,2018-03-12 16:24:52:815
-2.8453,8.5646,3.9853,-3.7077,8.5984,2.9138,0.478,0.114,-0.5576,0.398,0.57,-0.0845,0.4921,-32.25,-28.5,-12.45,127.34,-58.69,39.68,2.0,0.97956,44.594,35.773117,-78.67888,322.58,319.33133742764085,,3.2,148.3871,4.0,8 / 19,214421,2018-03-12 16:24:53:315
-4.632,9.034,2.6154,-3.9916,8.8318,1.4955,0.0874,0.3493,0.389,-0.0691,-0.0452,0.079,0.0,-30.0,-26.85,-12.6,144.12,-62.98,67.44,2.0,0.97957,43.862,35.773117,-78.67888,322.58,319.33133742764085,,3.2,148.3871,4.0,8 / 19,214921,2018-03-12 16:24:53:815
-3.6308,9.0963,1.6478,-3.7528,8.961,1.3373,0.5602,0.0435,-0.0209,-0.0147,-0.0399,-0.0313,0.0,-30.3,-28.5,-12.0,147.54,-65.53,69.92,2.0,0.97956,44.72,35.773117,-78.67888,322.58,319.33133742764085,,3.2,148.3871,4.0,8 / 19,215421,2018-03-12 16:24:54:315
-2.9267,9.1298,2.3567,-3.7867,8.7705,2.2158,-0.6533,0.8331,0.814,0.1919,-0.3163,0.2649,0.0,-29.7,-26.55,-11.85,144.86,-65.6,67.34,2.0,0.97957,43.195,35.773117,-78.67888,322.58,319.33133742764085,,3.2,148.3871,4.0,8 / 19,215921,2018-03-12 16:24:54:815
-2.4525,8.5215,5.5421,-2.6598,7.5913,5.6096,-1.452,2.2119,-0.2538,-0.72,-0.0974,-0.1639,0.0,-33.3,-23.25,-10.35,123.31,-58.95,35.77,2.0,0.97958,46.026,35.773117,-78.67888,322.58,319.33133742764085,,3.2,148.3871,4.0,8 / 19,216421,2018-03-12 16:24:55:315
-2.6585,5.3026,-0.1772,0.1522,7.6329,6.1552,-2.3215,-3.2107,-3.0405,0.177,-2.9869,0.8455,0.9842,-47.7,-15.0,-11.85,91.45,-42.73,-2.97,2.0,0.97957,49.177,35.773117,-78.67888,322.58,319.33133742764085,,3.2,148.3871,4.0,8 / 19,216921,2018-03-12 16:24:55:815
-8.3059,0.9628,1.94,-2.9876,7.0571,6.119,-1.076,-1.9931,-3.5323,-2.5261,0.1215,2.4258,0.4921,-15.9,-44.55,-6.75,151.22,-46.02,26.02,2.0,0.97956,44.567,35.773117,-78.67888,322.58,319.33133742764085,,3.2,148.3871,4.0,8 / 19,217420,2018-03-12 16:24:56:314
1.825,2.2322,7.7694,0.7645,1.6555,9.6356,3.5369,-0.174,2.6255,1.1586,-0.0671,-0.4036,0.4921,-35.25,7.2,-15.9,73.34,-9.72,-4.54,2.0,0.97956,47.907,35.773117,-78.67888,322.58,319.33133742764085,,3.2,148.3871,4.0,8 / 19,217920,2018-03-12 16:24:56:814
0.7856,1.3891,9.0053,1.3599,1.7686,9.5495,-0.8186,-0.3698,0.4588,0.1317,-0.099,0.4321,0.4921,-29.55,16.5,-16.5,53.46,-10.39,-8.1,2.0,0.97958,50.256,35.773117,-78.67888,322.58,319.33133742764085,,3.2,148.3871,4.0,8 / 19,218421,2018-03-12 16:24:57:315
1.9783,1.6957,9.7286,1.667,1.5709,9.5354,0.2253,0.0851,-0.0428,0.0822,0.2642,0.078,0.4921,-26.4,18.15,-14.1,48.27,-9.22,-9.92,2.0,0.97958,46.672,35.773117,-78.67888,322.58,319.33133742764085,,3.2,148.3871,4.0,8 / 19,218921,2018-03-12 16:24:57:815
1.7532,1.6669,9.8771,1.597,1.5814,9.5456,0.0598,0.1084,0.3006,0.0161,-0.0122,0.0093,0.4921,-27.15,16.05,-15.75,51.54,-9.28,-9.5,2.0,0.97958,45.289,35.773117,-78.67888,322.58,319.33133742764085,,3.2,148.3871,4.0,8 / 19,219420,2018-03-12 16:24:58:314
1.6142,1.7196,9.9393,1.5981,1.5747,9.5466,-0.1377,0.1251,0.4184,0.0177,-0.0532,0.029,0.4921,-27.0,17.4,-12.6,51.5,-9.18,-9.3,2.0,0.97961,45.686,35.773117,-78.67888,322.58,319.33133742764085,,3.2,148.3871,4.0,8 / 19,219921,2018-03-12 16:24:58:815
1.9639,1.6095,9.6423,1.6192,1.576,9.5428,0.305,0.1395,0.1506,-0.027,0.025,0.07,0.4921,-27.9,16.35,-13.5,53.38,-9.21,-9.7,2.0,0.97961,47.357,35.773117,-78.67888,322.58,319.33133742764085,,3.2,148.3871,4.0,8 / 19,220421,2018-03-12 16:24:59:315
2.1316,1.552,9.6567,1.5975,1.6202,9.539,-0.1331,0.1028,0.4547,0.0344,-0.1061,0.0678,0.4921,-26.25,17.4,-13.95,49.8,-9.36,-9.5,2.0,0.97963,45.422,35.773117,-78.67888,322.58,319.33133742764085,,3.2,148.3871,4.0,8 / 19,220921,2018-03-12 16:24:59:815
1.1065,1.7915,9.9633,1.2575,1.7269,9.5712,0.482,0.1717,0.1969,0.0578,0.0047,0.0066,0.0,-24.6,17.1,-14.85,48.63,-9.41,-8.56,2.0,0.97963,49.635,35.773117,-78.67888,322.58,319.33133742764085,,3.2,148.3871,4.0,8 / 19,221421,2018-03-12 16:25:00:315
1.4131,1.8298,9.7525,1.3838,1.677,9.5626,0.0929,0.0221,0.2144,-0.0135,0.026,-0.0136,0.0,-25.05,17.85,-14.55,47.2,-9.92,-8.29,2.0,0.97963,53.411,35.773117,-78.67888,322.58,319.33133742764085,,3.2,148.3871,4.0,8 / 19,221922,2018-03-12 16:25:00:816
2.3806,-0.0144,9.8196,1.9716,1.5699,9.4773,1.0571,-4.9697,1.3176,0.4323,0.8063,-0.1479,0.0,-24.9,20.1,-13.95,43.55,-9.21,-11.75,2.0,0.97964,47.574,35.773117,-78.67888,322.58,319.33133742764085,,3.2,148.3871,4.0,8 / 19,222421,2018-03-12 16:25:01:315
-5.1924,7.1659,6.4522,-3.8174,6.725,6.0309,0.4712,-0.8269,-2.9972,1.0006,0.1101,0.4125,0.4921,-23.1,-2.55,-34.65,75.46,-32.72,25.29,2.0,0.97963,46.512,35.773117,-78.67888,322.58,319.33133742764085,,3.2,148.3871,4.0,8 / 19,222922,2018-03-12 16:25:01:816
-0.1581,4.6942,8.2724,-0.7771,4.8138,8.5085,2.4257,-0.4219,0.6384,-1.0405,-1.1575,-0.4887,0.4921,-40.5,-1.8,-24.45,89.95,-40.06,27.96,2.0,0.97961,46.089,35.773117,-78.67888,322.58,319.33133742764085,,3.2,148.3871,4.0,8 / 19,223421,2018-03-12 16:25:02:315
-1.94,5.4223,9.9106,-1.049,5.7202,7.8962,-0.379,-0.6069,1.9919,-0.371,-1.2193,-0.1537,0.4921,-42.45,-3.9,-22.5,82.02,-35.68,7.57,2.0,0.9796,45.429,35.773117,-78.67888,322.58,319.33133742764085,,3.2,148.3871,4.0,8 / 19,223920,2018-03-12 16:25:02:814
-0.0527,5.0343,9.0771,-0.7622,5.8828,7.8091,0.539,-0.7356,1.2092,-0.0785,-0.2862,-0.1558,0.4921,-47.7,-3.9,-21.3,82.52,-36.86,5.57,2.0,0.97961,45.861,35.773117,-78.67888,322.58,319.33133742764085,,3.2,148.3871,4.0,8 / 19,224421,2018-03-12 16:25:03:315
-5.1397,9.4651,5.4702,-2.6585,7.0991,6.2214,-2.3228,2.2008,-0.5918,1.4704,1.3272,-0.5665,0.0,-37.95,-14.85,-23.4,97.57,-46.38,23.14,2.0,0.97962,46.282,35.773117,-78.67888,322.58,319.33133742764085,,3.2,148.3871,4.0,0 / 19,224920,2018-03-12 16:25:03:814
-0.7041,5.5277,8.5358,-1.6991,6.2247,7.3849,0.4532,-0.3276,0.4623,-0.7848,-0.4699,0.291,0.4921,-42.75,-8.1,-22.5,88.4,-39.4,12.96,2.0,0.9796,46.342,35.773117,-78.67888,322.58,319.33133742764085,,3.2,148.3871,4.0,0 / 19,225420,2018-03-12 16:25:04:314
-0.8574,5.6139,8.6173,-0.898,5.5264,8.0513,0.0427,0.0869,0.5609,-0.0476,-0.0773,2.0E-4,0.4921,-44.55,-4.65,-22.05,83.79,-34.62,7.04,2.0,0.97959,46.88,35.773117,-78.67888,322.58,319.33133742764085,,3.2,148.3871,4.0,0 / 19,225921,2018-03-12 16:25:04:815
-1.1544,5.6187,8.4832,-1.057,5.5113,8.0423,0.0208,0.0939,0.325,-0.029,0.0888,-0.0222,0.4921,-44.25,-5.4,-18.75,85.37,-34.24,6.44,2.0,0.97958,44.377,35.773117,-78.67888,322.58,319.33133742764085,,3.2,148.3871,4.0,0 / 19,226421,2018-03-12 16:25:05:315
-1.7723,5.8151,8.5502,-1.6281,5.7886,7.7467,-0.0641,0.0121,0.5995,-0.5616,-0.7064,-9.0E-4,0.4921,-42.3,-8.4,-23.85,87.13,-36.18,11.87,2.0,0.9796,40.898,35.773117,-78.67888,322.58,319.33133742764085,,3.2,148.3871,4.0,0 / 19,226921,2018-03-12 16:25:05:815
-1.4418,6.0642,7.7934,-0.8801,5.5965,8.0047,-0.3663,0.3492,0.0817,-0.0375,0.0068,0.103,0.4921,-43.65,-5.55,-20.25,85.43,-34.8,6.27,2.0,0.97959,40.089,35.773117,-78.67888,322.58,319.33133742764085,,3.2,148.3871,4.0,0 / 19,227420,2018-03-12 16:25:06:314
-0.7808,5.6283,8.0856,-0.8178,5.6863,7.9478,0.0356,-0.0556,0.1391,0.0395,-0.001,-0.0626,0.4921,-44.85,-5.4,-20.85,83.47,-35.44,5.88,2.0,0.97959,40.193,35.773117,-78.67888,322.58,319.33133742764085,,3.2,148.3871,4.0,0 / 19,227920,2018-03-12 16:25:06:814
-0.9724,5.8678,8.7179,-0.7549,5.5881,8.0233,0.1052,-0.0523,0.3963,-0.0356,-0.1923,0.0625,0.0,-48.0,-2.25,-20.85,82.35,-35.18,7.48,2.0,0.9796,40.409,35.773117,-78.67888,322.58,319.33133742764085,,3.2,148.3871,4.0,0 / 19,228421,2018-03-12 16:25:07:315
-0.9436,6.0786,8.555,-0.8511,5.8334,7.8369,-0.0114,0.1106,-0.2191,0.3016,0.498,0.2127,0.4921,-46.2,-4.95,-20.85,83.94,-35.82,6.5,2.0,0.9796,39.461,35.773117,-78.67888,322.58,319.33133742764085,,3.2,148.3871,4.0,0 / 19,228921,2018-03-12 16:25:07:815
-1.5184,6.2271,8.555,-1.474,6.3338,7.3403,0.2972,0.0417,0.1044,0.3048,0.6232,-0.0046,0.4921,-44.7,-7.35,-22.2,86.94,-36.77,10.21,2.0,0.9796,39.379,35.773117,-78.67888,322.58,319.33133742764085,,3.2,148.3871,4.0,0 / 19,229420,2018-03-12 16:25:08:314
-0.3976,5.978,7.4725,-0.7795,6.4622,7.3351,-0.5065,0.6331,0.6168,-0.035,0.0209,0.1583,0.4921,-47.55,-6.9,-21.0,92.8,-45.23,19.97,2.0,0.9796,39.481,35.773117,-78.67888,322.58,319.33133742764085,,3.2,148.3871,4.0,0 / 19,229921,2018-03-12 16:25:08:815
10.3513,6.2462,9.6855,2.412,5.7872,7.5406,-1.2181,1.9394,2.6522,0.1092,-0.4144,0.7847,0.4921,-51.15,0.3,-11.4,86.83,-34.34,6.56,2.0,0.9796,39.709,35.773117,-78.67888,322.58,319.33133742764085,,3.2,148.3871,4.0,0 / 19,230420,2018-03-12 16:25:09:314
2.2848,7.0414,6.2318,1.8088,6.5065,7.1109,-4.6402,1.8338,3.0677,-1.2682,1.8525,0.1876,0.4921,-54.45,7.8,-7.2,58.93,-46.01,-26.32,2.0,0.97962,38.113,35.773117,-78.67888,322.58,319.33133742764085,,3.2,148.3871,4.0,0 / 19,230921,2018-03-12 16:25:09:815
-0.6275,5.5229,7.8509,-1.245,5.4082,8.0853,-0.4378,-1.3376,0.4185,-0.5493,-1.7646,0.2142,0.4921,-50.4,4.35,-18.0,80.26,-33.47,8.75,2.0,0.97962,41.94,35.773117,-78.67888,322.58,319.33133742764085,,3.2,148.3871,4.0,0 / 19,231421,2018-03-12 16:25:10:315
-0.661,6.1121,7.7407,-0.5886,5.9274,7.7904,-0.3508,0.108,-0.0862,0.3296,-0.0484,0.0767,0.4921,-51.3,3.9,-18.15,77.36,-37.19,4.32,2.0,0.97962,43.171,35.773117,-78.67888,322.58,319.33133742764085,,3.2,148.3871,4.0,0 / 19,231920,2018-03-12 16:25:10:814
-1.1113,6.3229,7.8365,-0.6516,6.2401,7.5371,-0.1531,0.2755,0.3562,-0.1082,0.0486,0.065,0.1323,-53.1,2.55,-19.05,78.12,-39.52,4.94,2.0,0.97962,46.434,35.773117,-78.67888,322.58,319.33133742764085,,3.2,148.3871,4.0,0 / 19,232421,2018-03-12 16:25:11:315
-1.231,6.1648,7.6162,-0.7938,6.2323,7.5298,-0.5258,0.1931,-0.0312,-0.0966,0.1972,0.0745,0.6244,-52.95,4.05,-20.4,77.45,-39.46,6.02,2.0,0.97958,46.099,35.773117,-78.67888,322.58,319.33133742764085,,3.2,148.3871,4.0,0 / 19,232920,2018-03-12 16:25:11:814
-1.8394,6.5863,7.7263,-1.4951,6.2554,7.4031,-0.2671,0.133,-0.5334,0.288,0.1957,-0.0342,0.4921,-49.8,2.25,-23.7,79.22,-39.63,11.42,2.0,0.97958,40.89,35.773117,-78.67888,322.58,319.33133742764085,,3.2,148.3871,4.0,0 / 19,233421,2018-03-12 16:25:12:315
-1.4849,6.3324,7.7503,-1.1933,6.1142,7.5738,-0.2322,0.2251,0.0675,-0.0513,-0.0568,-0.0145,0.4921,-49.65,3.15,-22.2,78.38,-38.97,9.34,2.0,0.97957,40.156,35.773117,-78.67888,322.58,319.33133742764085,,3.2,148.3871,4.0,0 / 19,233921,2018-03-12 16:25:12:815
-1.7579,6.0115,8.1431,-1.4153,5.9062,7.6996,-0.1761,0.1032,-0.1833,0.0649,0.5179,-0.0181,0.4921,-47.25,1.65,-22.05,79.27,-37.03,10.42,2.0,0.97958,40.463,35.773117,-78.67888,322.58,319.33133742764085,,3.2,148.3871,4.0,0 / 19,234421,2018-03-12 16:25:13:315
-1.9974,6.1121,7.4964,-1.879,5.8635,7.6328,-0.3725,0.2777,0.1424,-0.2296,0.0189,-0.0064,0.4921,-48.3,1.95,-23.7,80.59,-36.72,13.83,2.0,0.97958,41.664,35.773117,-78.67888,322.58,319.33133742764085,,3.2,148.3871,4.0,0 / 19,234921,2018-03-12 16:25:13:815
-2.5723,6.0115,8.1047,-2.1044,5.6789,7.7131,-0.1526,0.2069,0.0744,0.0213,0.208,0.0367,0.4921,-47.25,4.8,-25.65,77.64,-35.39,15.26,2.0,0.97959,41.402,35.773117,-78.67888,322.58,319.33133742764085,,3.2,148.3871,4.0,0 / 19,235421,2018-03-12 16:25:14:315
-1.552,5.8247,7.6305,-1.3565,5.2258,8.1866,-0.2628,0.2874,-0.3168,0.106,-0.2793,-0.048,0.4921,-48.75,7.2,-22.05,75.72,-32.2,9.41,2.0,0.97961,42.431,35.773117,-78.67888,322.58,319.33133742764085,,3.2,148.3871,4.0,0 / 19,235920,2018-03-12 16:25:14:814
-2.9123,6.7827,3.6069,-3.0693,7.6968,5.2449,4.7738,-0.8174,-4.6562,0.3696,-0.2527,-0.3016,0.6244,-30.3,-18.0,-28.35,101.93,-44.32,34.39,2.0,0.9796,62.935,35.773117,-78.67888,322.58,319.33133742764085,,3.2,148.3871,4.0,0 / 19,236420,2018-03-12 16:25:15:314
-0.8526,7.8748,8.1814,0.0206,8.0315,5.6271,0.5124,2.3952,2.9246,-1.1553,-1.5869,1.4817,0.6244,-31.65,8.85,-17.7,57.94,-54.98,-0.21,0.0,0.97962,60.58,35.773117,-78.67888,322.58,319.33133742764085,,3.2,148.3871,4.0,0 / 19,236920,2018-03-12 16:25:15:814
1.8346,7.415,6.5959,1.9123,7.0606,6.5316,0.102,0.5171,-0.3984,-0.0094,0.0083,0.0053,0.4921,-9.9,41.85,-32.7,0.34,-46.05,-16.32,2.0,0.97963,65.958,35.773117,-78.67888,322.58,319.33133742764085,,3.2,148.3871,4.0,0 / 19,237420,2018-03-12 16:25:16:314
1.6095,7.3336,6.9599,1.9043,7.054,6.541,-0.1889,0.2761,0.2713,-0.0133,0.0062,-0.0038,0.4921,-6.9,40.2,-31.2,357.8,-46.0,-16.23,2.0,0.97964,63.913,35.773117,-78.67888,322.58,319.33133742764085,,3.2,148.3871,4.0,0 / 19,237921,2018-03-12 16:25:16:815
1.5184,7.2665,6.8881,1.9008,7.0515,6.5448,-0.3495,0.2946,0.392,0.0026,-0.0045,-0.0022,0.4921,-5.7,41.4,-31.35,356.77,-45.98,-16.19,2.0,0.97964,64.818,35.773117,-78.67888,322.58,319.33133742764085,,3.2,148.3871,4.0,0 / 19,238421,2018-03-12 16:25:17:315
1.528,7.3958,6.7348,1.901,7.0497,6.5466,-0.2678,0.4388,0.0949,0.0106,-0.0051,-0.0022,0.4921,-4.95,41.4,-32.7,355.19,-45.96,-16.19,2.0,0.97963,60.967,35.773117,-78.67888,322.58,319.33133742764085,,3.2,148.3871,4.0,1 / 19,238920,2018-03-12 16:25:17:814
1.5711,7.4294,6.4043,1.9013,7.0515,6.5446,-0.239,0.402,0.1319,-0.0326,0.0215,-6.0E-4,0.4921,-4.2,42.0,-32.1,354.42,-45.96,-16.2,2.0,0.97963,61.173,35.773117,-78.67888,322.58,319.33133742764085,,3.2,148.3871,4.0,1 / 19,239420,2018-03-12 16:25:18:314
1.7867,7.3575,6.9791,1.9026,7.0446,6.5517,-0.1157,0.1674,0.4246,-0.006,0.004,4.0E-4,0.4921,-4.5,41.55,-30.75,354.66,-45.93,-16.2,2.0,0.97964,63.727,35.773117,-78.67888,322.58,319.33133742764085,,3.2,148.3871,4.0,3 / 19,239920,2018-03-12 16:25:18:814
1.71,7.391,7.0797,1.9029,7.045,6.5511,-0.3146,0.3138,0.0273,-0.0246,0.0173,0.0063,0.4921,-6.45,41.1,-30.15,357.05,-45.91,-16.18,2.0,0.97964,65.413,35.773117,-78.67888,322.58,319.33133742764085,,3.2,148.3871,4.0,3 / 19,240421,2018-03-12 16:25:19:315
1.8537,7.3144,7.0653,1.901,7.041,6.556,-0.1447,0.2968,0.2121,-0.0289,0.0162,0.0047,0.4921,-4.95,40.8,-30.6,355.66,-45.94,-16.22,2.0,0.97964,68.997,35.773117,-78.67888,322.58,319.33133742764085,,3.2,148.3871,4.0,6 / 19,240921,2018-03-12 16:25:19:815
1.9016,7.1994,7.0797,1.901,7.0385,6.5587,0.0573,0.1897,0.4713,0.0259,-0.0185,0.001,0.9842,-6.6,40.5,-30.0,358.16,-45.89,-16.17,2.0,0.97965,68.279,35.773117,-78.67888,322.58,319.33133742764085,,3.2,148.3871,4.0,6 / 19,241420,2018-03-12 16:25:20:314
1.7915,7.2952,6.6534,1.8997,7.0371,6.5606,-0.1502,0.2087,0.3947,0.0323,-0.0185,-0.0038,0.4921,-5.85,41.55,-30.45,357.11,-45.86,-16.15,2.0,0.97965,70.902,35.773117,-78.67888,322.58,319.33133742764085,,3.2,148.3871,4.0,7 / 19,241921,2018-03-12 16:25:20:815
1.8154,7.3288,6.8689,1.9011,7.0422,6.5547,-0.1071,0.2814,0.3005,-0.0119,0.0049,0.0031,0.9842,-4.95,42.45,-31.35,355.75,-45.9,-16.17,2.0,0.97965,67.752,35.773117,-78.67888,322.58,319.33133742764085,,3.2,148.3871,4.0,7 / 19,242421,2018-03-12 16:25:21:315
1.7388,7.4054,6.6821,1.9032,7.0469,6.549,-0.2566,0.3335,0.5448,-0.0305,0.0145,5.0E-4,0.9842,-6.0,42.9,-31.35,356.85,-45.94,-16.2,2.0,0.97963,71.378,35.773117,-78.67888,322.58,319.33133742764085,,3.2,148.3871,4.0,7 / 19,242921,2018-03-12 16:25:21:815
1.7388,7.3719,6.9264,1.8965,7.0419,6.5564,-0.1497,0.3153,0.2674,-0.0368,0.0108,-5.0E-4,0.0,-2.55,43.5,-29.85,354.0,-45.9,-16.13,2.0,0.97963,68.39,35.773117,-78.67888,322.58,319.33133742764085,,3.2,148.3871,4.0,7 / 19,243420,2018-03-12 16:25:22:314
1.9016,7.1611,6.9887,1.8972,7.0322,6.5665,0.045,0.2004,0.2466,0.0175,-0.0441,-0.0261,0.4921,-2.85,42.15,-30.6,353.63,-45.82,-16.11,2.0,0.97964,69.906,35.773117,-78.67888,322.58,319.33133742764085,,3.2,148.3871,4.0,8 / 19,243920,2018-03-12 16:25:22:814
1.8969,7.1372,6.6869,1.9021,7.0367,6.5602,-0.1276,0.3058,0.3322,0.0196,-0.0841,-0.0586,0.4921,-1.05,39.45,-30.0,351.25,-45.85,-16.17,2.0,0.97964,70.069,35.773117,-78.67888,322.58,319.33133742764085,,3.2,148.3871,4.0,8 / 19,244421,2018-03-12 16:25:23:315
1.8729,7.3815,6.9935,1.9216,7.0484,6.542,-0.0213,0.2435,0.4179,-0.0688,-0.0852,-0.099,0.4921,0.6,37.95,-31.35,348.49,-45.95,-16.37,2.0,0.97962,67.843,35.773117,-78.67888,322.58,319.33133742764085,,3.2,148.3871,4.0,8 / 19,244922,2018-03-12 16:25:23:816
1.8394,7.2569,6.9408,1.9726,7.0588,6.5156,-0.137,0.1929,0.4553,-0.0118,-0.1629,-0.1278,0.9262,2.55,36.0,-30.75,345.47,-46.04,-16.84,2.0,0.97963,70.631,35.773117,-78.67888,322.58,319.33133742764085,,3.2,148.3871,4.0,8 / 19,245421,2018-03-12 16:25:24:315
1.3987,7.2186,7.2617,2.0135,7.0789,6.4811,-0.4241,0.1375,0.6334,-0.1295,-0.139,-0.1651,1.5507,1.95,37.2,-33.9,346.14,-46.21,-17.26,2.0,0.97965,67.73,35.773117,-78.67888,322.58,319.33133742764085,,3.2,148.3871,4.0,9 / 19,245921,2018-03-12 16:25:24:815
1.5232,7.1467,7.4773,2.044,7.0865,6.4633,-0.4998,0.1187,0.5921,-0.0377,-0.1853,-0.1576,1.5507,3.15,37.05,-34.5,344.96,-46.2,-17.35,2.0,0.97965,68.455,35.773117,-78.67888,322.58,319.33133742764085,,3.2,148.3871,4.0,9 / 19,246421,2018-03-12 16:25:25:315
1.5903,7.1946,6.7108,2.085,7.1103,6.4239,-0.4883,0.2102,0.7052,-0.1022,-0.1326,-0.1464,1.4183,6.6,35.7,-32.4,340.05,-46.42,-17.82,2.0,0.97964,68.346,35.773117,-78.67888,322.58,319.33133742764085,,3.2,148.3871,4.0,9 / 19,246921,2018-03-12 16:25:25:815
1.7579,7.233,6.5671,2.1403,7.14,6.3726,-0.4917,0.191,1.0789,-0.1027,-0.1177,-0.1267,0.6244,8.85,35.1,-32.7,337.04,-46.65,-18.39,2.0,0.97965,70.716,35.773117,-78.67888,322.58,319.33133742764085,,3.2,148.3871,4.0,9 / 19,247421,2018-03-12 16:25:26:315
1.71,7.1563,6.9168,2.1774,7.1551,6.343,-0.5384,0.1057,0.7569,-0.1118,-0.0942,-0.1139,0.9842,11.7,34.05,-34.35,332.96,-46.85,-18.95,2.0,0.97966,69.185,35.773117,-78.67888,322.58,319.33133742764085,,3.2,148.3871,4.0,9 / 19,247920,2018-03-12 16:25:26:814
1.7532,7.2761,6.9695,2.2102,7.1746,6.3096,-0.5179,0.1022,0.7187,-0.0063,-0.1347,-0.1043,0.4921,15.9,34.8,-35.55,328.95,-47.02,-19.3,2.0,0.97967,71.045,35.773117,-78.67888,322.58,319.33133742764085,,3.2,148.3871,4.0,9 / 19,248421,2018-03-12 16:25:27:315
1.1831,7.5778,6.6342,2.2112,7.1991,6.2812,-1.0744,0.3114,0.3585,-0.0974,-0.0255,-0.0766,0.4921,17.1,35.7,-34.95,328.16,-47.23,-19.39,2.0,0.97966,68.075,35.773117,-78.67888,322.58,319.33133742764085,,3.2,148.3871,4.0,9 / 19,248921,2018-03-12 16:25:27:815
0.9676,7.5587,7.0318,2.132,7.224,6.2801,-0.7736,0.2793,0.22,-0.0516,0.0272,-0.0127,0.4921,18.45,35.7,-35.7,327.66,-47.45,-18.75,2.0,0.97966,70.645,35.773117,-78.67888,322.58,319.33133742764085,,3.2,148.3871,4.0,9 / 19,249421,2018-03-12 16:25:28:315
2.0837,7.3527,6.6869,2.1601,7.2262,6.2679,-0.163,0.05,0.9135,0.024,-0.0197,-0.0095,0.4921,15.75,32.55,-36.15,328.34,-47.46,-19.02,2.0,0.97966,69.625,35.773117,-78.67888,322.58,319.33133742764085,,3.2,148.3871,4.0,9 / 19,249921,2018-03-12 16:25:28:815
1.0778,7.688,6.6007,2.1344,7.2462,6.2536,-1.132,0.5783,0.0075,-0.05,0.0666,-0.0068,0.4921,15.6,32.7,-38.4,328.64,-47.64,-18.85,2.0,0.97966,68.993,35.773117,-78.67888,322.58,319.33133742764085,,3.2,148.3871,4.0,9 / 19,250420,2018-03-12 16:25:29:314
1.4945,7.7407,6.6917,2.0082,7.3038,6.2284,-0.5638,0.607,3.0E-4,0.0363,-0.0346,-0.0175,0.4921,15.3,31.8,-38.1,329.97,-48.14,-17.86,2.0,0.97965,71.147,35.773117,-78.67888,322.58,319.33133742764085,,3.2,148.3871,4.0,9 / 19,250920,2018-03-12 16:25:29:814
1.4897,8.2772,5.8965,2.0091,7.3515,6.1717,-0.5636,0.8161,-0.2729,-0.0261,-0.1002,-0.1027,0.6244,16.05,34.95,-37.35,329.78,-48.35,-18.08,2.0,0.97965,70.255,35.773117,-78.67888,322.58,319.33133742764085,,3.2,148.3871,4.0,9 / 19,251421,2018-03-12 16:25:30:315
1.6957,8.7227,5.1685,1.9159,7.5904,5.9064,-0.2932,1.2165,-0.7752,-0.065,-0.2349,-0.197,0.4921,13.95,37.8,-37.8,332.78,-50.72,-17.97,2.0,0.97964,71.49,35.773117,-78.67888,322.58,319.33133742764085,,3.2,148.3871,4.0,9 / 19,251921,2018-03-12 16:25:30:815
1.7915,8.6364,5.5804,1.9143,7.6541,5.8241,-0.3472,0.9568,-0.2483,-0.0653,-0.3046,-0.2321,4.3177,17.55,34.05,-40.8,327.68,-51.31,-18.19,2.0,0.97964,70.469,35.773117,-78.67888,322.58,319.33133742764085,,3.2,148.3871,4.0,9 / 19,252421,2018-03-12 16:25:31:315
1.7484,8.3347,5.7049,1.8754,7.7088,5.7644,0.1744,0.8353,-0.0055,-0.0717,-0.2151,-0.1831,0.4921,18.15,39.45,-42.3,329.5,-51.82,-18.02,2.0,0.97964,70.533,35.773117,-78.67888,322.58,319.33133742764085,,3.2,148.3871,4.0,9 / 19,252922,2018-03-12 16:25:31:816
2.1172,7.482,5.954,1.8439,7.7071,5.7768,0.4221,0.2883,0.5345,-0.0275,-0.1203,-0.1122,0.0,21.6,34.95,-42.3,324.73,-51.79,-17.81,2.0,0.97966,69.927,35.773117,-78.67888,322.58,319.33133742764085,,3.2,148.3871,4.0,9 / 19,253421,2018-03-12 16:25:32:315
2.4477,8.1383,6.6198,1.8249,7.6681,5.8344,0.2865,-0.151,0.3475,-0.0126,-0.0617,-0.0403,0.4921,21.0,41.25,-44.25,328.0,-51.61,-17.63,2.0,0.97968,71.171,35.773117,-78.67888,322.58,319.33133742764085,,3.2,148.3871,4.0,9 / 19,253921,2018-03-12 16:25:32:815
2.5387,7.9419,6.8162,1.8341,7.6791,5.8171,0.3808,-0.0468,0.6066,0.0087,-0.0404,-0.0068,0.6244,19.35,41.4,-44.85,329.91,-51.54,-17.5,2.0,0.9797,67.736,35.773117,-78.67888,322.58,319.33133742764085,,3.2,148.3871,4.0,9 / 19,254421,2018-03-12 16:25:33:315
2.1603,8.4975,6.3947,1.788,7.617,5.9122,-0.1766,0.2151,0.5332,0.0955,-0.0335,-9.0E-4,0.9842,23.25,40.05,-42.45,326.3,-50.96,-16.83,2.0,0.97971,70.334,35.773117,-78.67888,322.58,319.33133742764085,,3.2,148.3871,4.0,9 / 19,254920,2018-03-12 16:25:33:814
